Ax,Ay,Az,Gx,Gy,Gz
-256,-389,15967,256,580,-83
-256,-390,15961,256,578,-82
-256,-393,15708,511,578,-83
-256,-387,15710,511,579,-81
-256,-387,15709,511,580,-80
-256,-392,15713,511,579,-80
-256,-395,15719,511,579,-79
-256,-393,15719,511,579,-77
-256,-395,15718,511,580,-75
-256,-391,15718,511,578,-74
-256,-394,15718,511,577,-74
-256,-397,15713,511,580,-76
-256,-396,15707,511,580,-76
-256,-395,15708,511,578,-75
-256,-393,15712,511,579,-74
-256,-392,15710,511,579,-77
-256,-389,15710,511,579,-76
-256,-389,15710,511,578,-75
-256,-390,15714,511,577,-76
-256,-398,15969,256,577,-77
-256,-394,15975,256,577,-75
-256,-399,15979,256,577,-75
-256,-395,15975,256,577,-75
-256,-391,15973,256,575,-74
-256,-387,15966,256,574,-73
-256,-389,15964,256,575,-74
-256,-395,15967,256,576,-70
-256,-396,15964,256,578,-69
-256,-399,15961,256,580,-70
-256,-403,15964,256,576,-69
-256,-400,15710,511,574,-70
-256,-402,15714,511,575,-66
-256,-397,15713,511,573,-65
-256,-390,15972,256,574,-64
-256,-386,15975,256,576,-66
-256,-386,15716,511,577,-67
-256,-389,15713,511,576,-69
-256,-395,15716,511,575,-71
-256,-399,15717,511,575,-71
-256,-401,15718,511,572,-70
-256,-402,15714,511,572,-71
-256,-396,15712,511,573,-75
-256,-388,15715,511,572,-75
-256,-386,15715,511,571,-75
-256,-390,15714,511,571,-77
-256,-392,15715,511,573,-77
-256,-396,15722,511,575,-76
-256,-393,15724,511,572,-75
-256,-396,15725,511,572,-74
-256,-393,15721,511,569,-74
-256,-391,15721,511,570,-75
-256,-389,15727,511,570,-76
-256,-390,15726,511,570,-74
-256,-386,15723,511,572,-71
-256,-387,15722,511,573,-70
-256,-381,15726,511,573,-69
-256,-379,15723,511,575,-72
-256,-384,15720,511,577,-72
-256,-380,15720,511,577,-69
-256,-383,15712,511,577,-69
-256,-381,15706,511,578,-69
-256,-383,15705,511,577,-69
-256,-381,15705,511,576,-72
-256,-381,15707,511,577,-72
-256,-378,15703,511,576,-73
-256,-383,15700,511,576,-72
-256,-384,15705,511,576,-70
-256,-394,15705,511,577,-71
-256,-395,15702,511,577,-73
-256,-396,15708,511,578,-72
-256,-395,15706,511,577,-71
-256,-391,15709,511,577,-74
-256,-396,15711,511,576,-74
-256,-399,15713,511,576,-71
-256,-396,15713,511,574,-75
-256,-396,15710,511,573,-72
-256,-392,15705,511,574,-70
-256,-395,15702,511,575,-71
-256,-392,15702,511,575,-73
-256,-388,15704,511,574,-74
-256,-387,15709,511,576,-74
-256,-385,15712,511,576,-74
-256,-386,15711,511,573,-74
-256,-395,15710,511,574,-74
-256,-395,15712,511,577,-74
-256,-395,15718,511,577,-74
-256,-398,15716,511,576,-73
-256,-406,15718,511,579,-73
-256,-401,15715,511,577,-75
-256,-401,15969,256,576,-76
-256,-404,15962,256,577,-75
-256,-404,15961,256,578,-77
-256,-405,15961,256,576,-76
-256,-401,15960,256,576,-77
-256,-396,15962,256,578,-74
-256,-394,15968,256,579,-72
-256,-394,15705,511,579,-73
-256,-397,15964,256,581,-73
-256,-403,15715,511,581,-70
-256,-404,15718,511,583,-67
-256,-404,15720,511,583,-66
-256,-402,15976,256,582,-66
-256,-402,15976,256,581,-65
-256,-401,15975,256,581,-69
-256,-401,15973,256,579,-71
-256,-401,15971,256,578,-73
-256,-397,15973,256,580,-72
-256,-394,15976,256,582,-70
-256,-395,15984,256,581,-72
-256,-398,15978,256,578,-73
-256,-401,15974,256,578,-73
-256,-396,15972,256,580,-75
-256,-387,15968,256,580,-76
-256,-387,15969,256,582,-75
-256,-385,15965,256,584,-76
-256,-386,15962,256,582,-77
-256,-385,15965,256,582,-79
-256,-385,15973,256,582,-80
-256,-388,15718,511,585,-80
-256,-395,15719,511,586,-79
-256,-395,15716,511,582,-78
-256,-395,15721,511,582,-77
-256,-395,15725,511,583,-76
-256,-398,15726,511,583,-77
-256,-393,15733,511,580,-76
-256,-393,15733,511,581,-75
-256,-386,15733,511,581,-77
-256,-382,15727,511,581,-81
-256,-384,15726,511,584,-78
-256,-386,15724,511,582,-77
-256,-383,15728,511,579,-77
-256,-384,15731,511,578,-77
-256,-383,15733,511,578,-78
-256,-382,15737,511,578,-78
-256,-383,15735,511,578,-77
-256,-387,15733,511,581,-77
-256,-393,15732,511,577,-73
-256,-392,15733,511,577,-74
-256,-392,15728,511,577,-73
-256,-391,15723,511,576,-76
-256,-398,15722,511,575,-81
-256,-408,15723,511,576,-79
-256,-409,15728,511,576,-78
-256,-409,15730,511,575,-78
-256,-407,15721,511,574,-79
-256,-405,15719,511,572,-77
-256,-403,15718,511,571,-75
-256,-402,15718,511,571,-76
-256,-397,15711,511,571,-73
-256,-394,15714,511,571,-73
-256,-396,15718,511,571,-73
-256,-396,15720,511,573,-74
-256,-390,15719,511,575,-75
-256,-392,15720,511,574,-75
-256,-394,15718,511,574,-75
-256,-391,15719,511,575,-76
-256,-390,15975,256,575,-75
-256,-391,15976,256,574,-73
-256,-390,15981,256,575,-76
-256,-391,15976,256,573,-74
-256,-386,15972,256,574,-75
-256,-385,15976,256,575,-77
-256,-391,15722,511,578,-76
-256,-389,15724,511,578,-75
-256,-388,15724,511,579,-74
-256,-394,15724,511,580,-74
-256,-396,15723,511,580,-75
-256,-396,15722,511,577,-75
-256,-393,15715,511,578,-76
-256,-392,15718,511,578,-73
-256,-392,15718,511,579,-75
-256,-396,15716,511,578,-76
-256,-400,15714,511,578,-75
-256,-403,15968,256,578,-75
-256,-403,15971,256,578,-75
-256,-399,15967,256,578,-77
-256,-393,15968,256,578,-79
-256,-385,15712,511,578,-79
-256,-384,15716,511,578,-78
-256,-390,15714,511,577,-77
-256,-386,15973,256,577,-75
-256,-381,15966,256,574,-75
-256,-382,15968,256,574,-74
-256,-381,15967,256,575,-73
-256,-381,15966,256,573,-76
-256,-379,15967,256,575,-74
-256,-380,15969,256,576,-74
-256,-380,15717,511,576,-77
-256,-377,15974,256,578,-78
-256,-380,15976,256,578,-76
-256,-383,15975,256,577,-77
-256,-374,15977,256,577,-78
-256,-371,15974,256,578,-78
-256,-366,15971,256,578,-76
-256,-362,15966,256,576,-77
-256,-365,15968,256,576,-79
-256,-365,15966,256,578,-78
-256,-369,15965,256,577,-80
-256,-371,15710,511,577,-85
-256,-369,15970,256,578,-83
-256,-369,15968,256,580,-84
-256,-372,15963,256,578,-85
-256,-369,15965,256,577,-83
-256,-368,15706,511,577,-83
-256,-371,15710,511,577,-84
-256,-371,15717,511,579,-82
-256,-371,15718,511,580,-83
-256,-375,15975,256,579,-81
-256,-378,15967,256,579,-81
-256,-380,15973,256,577,-79
-256,-383,15970,256,576,-79
-256,-389,15970,256,577,-82
-256,-387,15972,256,578,-81
-256,-384,15709,511,580,-81
-256,-388,15709,511,581,-81
-256,-384,15700,511,580,-79
-256,-379,15699,511,581,-77
-256,-373,15706,511,581,-78
-256,-375,15708,511,579,-79
-256,-387,15703,511,576,-80
-256,-394,15696,511,578,-77
-256,-396,15694,511,581,-79
-256,-397,15693,511,577,-84
-256,-396,15700,511,575,-83
-256,-397,15955,256,573,-82
-256,-401,15695,511,572,-84
-256,-397,15696,511,572,-84
-256,-395,15701,511,575,-82
-256,-395,15703,511,577,-81
-256,-394,15705,511,577,-77
-256,-393,15705,511,578,-75
-256,-399,15699,511,577,-75
-256,-401,15702,511,578,-72
-256,-404,15698,511,576,-74
-256,-403,15695,511,575,-76
-256,-406,15696,511,577,-75
-256,-405,15703,511,576,-76
-256,-400,15711,511,575,-76
-256,-399,15711,511,575,-76
-256,-396,15717,511,575,-78
-256,-396,15715,511,575,-77
-256,-396,15709,511,577,-77
-256,-392,15709,511,576,-77
-256,-388,15710,511,577,-78
-256,-395,15708,511,576,-77
-256,-390,15709,511,576,-76
-256,-392,15712,511,576,-78
-256,-398,15717,511,577,-84
-256,-402,15718,511,576,-83
-256,-403,15717,511,576,-83
-256,-405,15718,511,579,-82
-256,-402,15975,256,578,-81
-256,-396,15978,256,576,-79
-256,-398,15728,511,576,-81
-256,-401,15729,511,576,-80
-256,-404,15729,511,578,-80
-256,-401,15728,511,579,-78
-256,-398,15736,511,579,-79
-256,-398,15734,511,579,-79
-256,-399,15732,511,578,-79
-256,-403,15732,511,578,-80
-256,-402,15727,511,582,-77
-256,-405,15723,511,583,-75
-256,-405,15717,511,584,-78
-256,-396,15718,511,584,-79
-256,-391,15720,511,584,-77
-256,-391,15718,511,583,-77
-256,-386,15976,256,583,-78
-256,-391,15721,511,580,-77
-256,-393,15722,511,579,-76
-256,-394,15721,511,578,-75
-256,-396,15718,511,578,-75
-256,-401,15720,511,579,-76
-256,-400,15716,511,578,-75
-256,-403,15717,511,577,-72
-256,-405,15723,511,575,-71
-256,-409,15724,511,574,-71
-256,-405,15728,511,576,-73
-256,-403,15729,511,579,-73
-256,-402,15723,511,579,-73
-256,-404,15721,511,577,-75
-256,-406,15717,511,578,-76
-256,-404,15714,511,577,-77
-256,-401,15708,511,576,-77
-256,-404,15712,511,574,-78
-256,-401,15713,511,574,-77
-256,-401,15710,511,573,-76
-256,-404,15716,511,573,-76
-256,-404,15715,511,573,-76
-256,-403,15715,511,575,-74
-256,-401,15714,511,575,-72
-256,-402,15710,511,575,-71
-256,-408,15714,511,574,-72
-256,-406,15716,511,574,-72
-256,-411,15719,511,576,-72
-256,-408,15715,511,580,-74
-256,-406,15708,511,580,-73
-256,-406,15712,511,579,-72
-256,-411,15716,511,580,-73
-256,-410,15719,511,581,-76
-256,-402,15722,511,581,-76
-256,-398,15714,511,580,-76
-256,-392,15710,511,581,-73
-256,-389,15709,511,582,-76
-256,-388,15709,511,580,-75
-256,-389,15705,511,578,-72
-256,-382,15700,511,577,-69
-256,-382,15700,511,576,-71
-256,-375,15701,511,576,-74
-256,-373,15704,511,574,-74
-256,-371,15707,511,574,-76
-256,-379,15703,511,573,-75
-256,-378,15710,511,574,-75
-256,-381,15712,511,574,-77
-256,-383,15713,511,573,-78
-256,-387,15715,511,572,-79
-256,-384,15709,511,574,-81
-256,-389,15706,511,574,-81
-256,-390,15702,511,575,-80
-256,-392,15707,511,573,-81
-256,-393,15704,511,574,-81
-256,-398,15719,511,574,-82
-256,-395,15724,511,575,-81
-256,-406,15722,511,576,-81
-256,-407,15721,511,577,-80
-256,-409,15723,511,578,-81
-256,-404,15720,511,576,-80
-256,-408,15710,511,575,-77
-256,-399,15706,511,573,-76
-256,-396,15704,511,576,-76
-256,-396,15702,511,577,-78
-256,-393,15702,511,578,-78
-256,-397,15704,511,576,-77
-256,-398,15710,511,575,-77
-256,-401,15707,511,577,-76
-256,-401,15714,511,580,-80
-256,-400,15717,511,579,-78
-256,-399,15716,511,580,-77
-256,-401,15717,511,581,-79
-256,-397,15715,511,582,-79
-256,-404,15704,511,579,-76
-256,-403,15703,511,576,-75
-256,-402,15703,511,575,-76
-256,-409,15698,511,577,-75
-256,-411,15699,511,576,-76
-256,-409,15699,511,576,-75
-256,-407,15702,511,577,-74
-256,-408,15703,511,577,-73
-256,-413,15701,511,576,-71
-256,-413,15699,511,577,-69
-256,-410,15696,511,577,-71
-256,-410,15699,511,576,-69
-256,-408,15707,511,573,-70
-256,-401,15708,511,573,-70
-256,-404,15711,511,575,-71
-256,-400,15715,511,573,-72
-256,-395,15717,511,573,-71
-256,-394,15718,511,573,-70
-256,-390,15719,511,575,-70
-256,-391,15721,511,577,-68
-256,-397,15715,511,577,-65
-256,-395,15709,511,578,-64
-256,-396,15711,511,578,-64
-256,-399,15707,511,577,-64
-256,-399,15698,511,578,-65
-256,-399,15699,511,578,-64
-256,-402,15698,511,579,-67
-256,-403,15700,511,577,-68
-256,-401,15701,511,575,-69
-256,-404,15700,511,573,-71
-256,-402,15699,511,577,-71
-256,-399,15703,511,577,-69
-256,-397,15705,511,576,-72
-256,-398,15702,511,575,-72
-256,-395,15700,511,576,-74
-256,-395,15696,511,577,-76
-256,-394,15698,511,576,-74
-256,-391,15698,511,575,-74
-256,-395,15700,511,573,-77
-256,-395,15701,511,573,-75
-256,-395,15701,511,576,-71
-256,-398,15700,511,577,-72
-256,-404,15702,511,577,-74
-256,-401,15956,256,577,-75
-256,-395,15960,256,575,-74
-256,-395,15710,511,574,-71
-256,-390,15714,511,574,-71
-256,-389,15715,511,572,-73
-256,-392,15714,511,572,-75
-256,-391,15718,511,573,-77
-256,-386,15721,511,573,-75
-256,-384,15724,511,574,-76
-256,-385,15719,511,574,-77
-256,-388,15722,511,574,-73
-256,-385,15971,256,571,-73
-256,-381,15715,511,573,-74
-256,-376,15970,256,573,-74
-256,-375,15966,256,572,-72
-256,-374,15967,256,572,-73
-256,-380,15971,256,572,-73
-256,-371,15975,256,573,-74
-256,-369,15971,256,573,-72
-256,-371,15969,256,572,-73
-256,-373,15968,256,572,-73
-256,-380,15967,256,575,-75
-256,-382,15964,256,576,-75
-256,-384,15964,256,575,-77
-256,-382,15969,256,577,-78
-256,-378,15970,256,575,-79
-256,-379,15974,256,577,-75
-256,-381,15971,256,578,-74
-256,-377,15706,511,576,-75
-256,-376,15698,511,574,-77
-256,-376,15705,511,575,-76
-256,-378,15707,511,574,-77
-256,-374,15706,511,575,-75
-256,-377,15696,511,575,-72
-256,-379,15702,511,573,-76
-256,-385,15704,511,571,-75
-256,-383,15702,511,571,-76
-256,-383,15702,511,573,-77
-256,-383,15701,511,572,-80
-256,-385,15702,511,573,-80
-256,-381,15701,511,573,-77
-256,-383,15703,511,573,-77
-256,-392,15703,511,573,-79
-256,-389,15703,511,574,-78
-256,-391,15709,511,574,-77
-256,-386,15710,511,573,-78
-256,-387,15714,511,573,-78
-256,-390,15709,511,577,-78
-256,-393,15715,511,576,-76
-256,-392,15720,511,575,-73
-256,-401,15721,511,574,-73
-256,-406,15714,511,573,-77
-256,-406,15712,511,573,-78
-256,-406,15715,511,576,-81
-256,-408,15715,511,575,-82
-256,-408,15972,256,575,-77
-256,-408,15973,256,572,-78
-256,-408,15976,256,572,-77
-256,-408,15717,511,573,-78
-256,-411,15714,511,576,-79
-256,-409,15715,511,576,-78
-256,-408,15711,511,577,-75
-256,-408,15704,511,576,-75
-256,-404,15703,511,575,-75
-256,-399,15702,511,574,-72
-256,-394,15703,511,575,-73
-256,-393,15709,511,577,-73
-256,-387,15715,511,577,-74
-256,-386,15711,511,579,-73
-256,-389,15698,511,579,-75
-256,-385,15703,511,578,-75
-256,-389,15703,511,576,-77
-256,-385,15708,511,575,-79
-256,-380,15710,511,575,-78
-256,-378,15714,511,574,-77
-256,-381,15712,511,575,-71
-256,-383,15713,511,576,-71
-256,-385,15714,511,577,-71
-256,-383,15710,511,577,-69
-256,-380,15713,511,577,-70
-256,-376,15717,511,575,-71
-256,-374,15720,511,577,-69
-256,-375,15721,511,577,-68
-256,-375,15715,511,575,-68
-256,-380,15720,511,574,-67
-256,-388,15721,511,574,-68
-256,-392,15722,511,574,-70
-256,-394,15717,511,574,-71
-256,-395,15716,511,575,-71
-256,-394,15711,511,575,-71
-256,-396,15714,511,575,-71
-256,-397,15719,511,576,-73
-256,-394,15718,511,578,-74
-256,-392,15717,511,578,-72
-256,-393,15714,511,577,-74
-256,-392,15716,511,575,-72
-256,-389,15975,256,574,-69
-256,-388,15718,511,575,-70
-256,-380,15980,256,576,-70
-256,-378,15721,511,579,-72
-256,-382,15716,511,579,-71
-256,-385,15721,511,577,-71
-256,-384,15721,511,578,-72
-256,-379,15721,511,580,-74
-256,-387,15718,511,580,-73
-256,-395,15716,511,579,-72
-256,-397,15717,511,579,-73
-256,-394,15712,511,577,-71
-256,-399,15710,511,578,-69
-256,-398,15710,511,577,-71
-256,-396,15719,511,578,-72
-256,-395,15973,256,579,-71
-256,-396,15971,256,579,-73
-256,-404,15971,256,578,-75
-256,-403,15971,256,578,-74
-256,-405,15719,511,579,-74
-256,-407,15719,511,578,-71
-256,-409,15975,256,579,-71
-256,-409,15973,256,579,-72
-256,-409,15970,256,580,-73
-256,-416,15716,511,582,-73
-256,-412,15714,511,581,-72
-256,-405,15719,511,581,-70
-256,-406,15721,511,582,-71
-256,-403,15716,511,581,-70
-256,-401,15709,511,581,-69
-256,-405,15715,511,581,-70
-256,-397,15716,511,577,-71
-256,-401,15712,511,576,-71
-256,-405,15716,511,576,-73
-256,-412,15716,511,578,-73
-256,-407,15719,511,577,-74
-256,-400,15722,511,574,-74
-256,-394,15727,511,576,-75
-256,-390,15726,511,577,-76
-256,-389,15725,511,576,-76
-256,-394,15721,511,575,-76
-256,-393,15716,511,576,-79
-256,-395,15708,511,577,-82
-256,-392,15707,511,578,-79
-256,-394,15716,511,574,-80
-256,-392,15724,511,575,-81
-256,-391,15721,511,573,-80
-256,-393,15719,511,572,-79
-256,-393,15717,511,571,-77
-256,-394,15716,511,570,-74
-256,-392,15713,511,573,-77
-256,-394,15974,256,574,-77
-256,-397,15720,511,574,-72
-256,-398,15718,511,575,-70
-256,-394,15711,511,575,-70
-256,-388,15712,511,573,-70
-256,-389,15712,511,575,-72
-256,-381,15713,511,575,-72
-256,-382,15716,511,574,-75
-256,-386,15716,511,570,-77
-256,-392,15712,511,568,-78
-256,-400,15715,511,572,-78
-256,-400,15712,511,573,-75
-256,-396,15705,511,572,-76
-256,-401,15699,511,575,-81
-256,-401,15699,511,577,-80
-256,-397,15692,511,578,-77
-256,-394,15691,511,577,-77
-256,-394,15695,511,578,-78
-256,-395,15695,511,578,-80
-256,-401,15699,511,578,-80
-256,-402,15696,511,578,-79
-256,-396,15696,511,577,-78
-256,-397,15704,511,578,-81
-256,-395,15709,511,578,-81
-256,-397,15715,511,577,-81
-256,-398,15711,511,577,-80
-256,-404,15710,511,578,-80
-256,-398,15706,511,577,-81
-256,-394,15704,511,579,-81
-256,-394,15705,511,579,-80
-256,-393,15708,511,576,-77
-256,-392,15963,256,577,-78
-256,-396,15962,256,576,-76
-256,-398,15702,511,577,-76
-256,-397,15705,511,579,-73
-256,-394,15705,511,579,-72
-256,-401,15705,511,580,-71
-256,-399,15707,511,580,-71
-256,-392,15711,511,579,-69
-256,-394,15708,511,577,-68
-256,-393,15705,511,577,-68
-256,-388,15704,511,578,-69
-256,-389,15694,511,579,-72
-256,-389,15694,511,577,-71
-256,-395,15699,511,575,-74
-256,-393,15703,511,576,-76
-256,-390,15705,511,576,-73
-256,-387,15705,511,577,-73
-256,-389,15699,511,579,-75
-256,-397,15702,511,578,-77
-256,-396,15700,511,577,-74
-256,-396,15703,511,577,-73
-256,-396,15704,511,578,-70
-256,-395,15702,511,578,-71
-256,-397,15708,511,580,-70
-256,-400,15711,511,579,-70
-256,-406,15708,511,583,-72
-256,-408,15708,511,584,-72
-256,-403,15713,511,583,-73
-256,-402,15706,511,580,-73
-256,-395,15704,511,579,-75
-256,-394,15704,511,580,-75
-256,-392,15704,511,581,-74
-256,-392,15703,511,580,-74
-256,-394,15704,511,580,-73
-256,-393,15706,511,580,-72
-256,-399,15712,511,578,-70
-256,-404,15712,511,577,-74
-256,-406,15710,511,578,-76
-256,-402,15712,511,578,-78
-256,-400,15712,511,574,-78
-256,-401,15710,511,574,-80
-256,-400,15710,511,576,-81
-256,-404,15712,511,579,-80
-256,-404,15710,511,579,-80
-256,-406,15710,511,575,-82
-256,-409,15716,511,574,-82
-256,-411,15720,511,573,-81
-256,-414,15724,511,574,-81
-256,-410,15726,511,571,-78
-256,-405,15726,511,571,-77
-256,-400,15725,511,571,-79
-256,-396,15721,511,570,-77
-256,-394,15715,511,569,-74
-256,-393,15711,511,570,-76
-256,-394,15710,511,570,-77
-256,-390,15714,511,569,-77
-256,-390,15716,511,569,-77
-256,-389,15717,511,571,-77
-256,-390,15718,511,575,-77
-256,-394,15725,511,577,-76
-256,-398,15722,511,577,-74
-256,-401,15717,511,577,-76
-256,-401,15713,511,577,-77
-256,-401,15713,511,578,-75
-256,-404,15708,511,577,-77
-256,-405,15706,511,577,-74
-256,-402,15714,511,576,-76
-256,-406,15719,511,576,-76
-256,-403,15721,511,574,-77
-256,-402,15724,511,573,-78
-256,-402,15725,511,573,-81
-256,-407,15728,511,573,-80
-256,-410,15728,511,573,-80
-256,-399,15729,511,571,-81
-256,-396,15731,511,572,-81
-256,-393,15733,511,573,-80
-256,-392,15738,511,574,-80
-256,-394,15737,511,575,-80
-256,-395,15736,511,576,-78
-256,-396,15738,511,577,-78
-256,-397,15736,511,577,-77
-256,-402,15733,511,578,-80
-256,-401,15728,511,577,-80
-256,-400,15727,511,581,-75
-256,-397,15727,511,580,-77
-256,-402,15724,511,579,-76
-256,-401,15726,511,582,-73
-256,-401,15732,511,580,-74
-256,-398,15735,511,580,-74
-256,-395,15738,511,580,-78
-256,-390,15733,511,582,-76
-256,-385,15733,511,581,-76
-256,-382,15984,256,580,-76
-256,-381,15989,256,580,-74
-256,-385,15988,256,580,-73
-256,-389,15979,256,581,-74
-256,-393,15722,511,580,-73
-256,-396,15715,511,579,-73
-256,-401,15715,511,577,-73
-256,-394,15712,511,577,-72
-256,-390,15711,511,578,-71
-256,-396,15704,511,578,-72
-256,-392,15709,511,579,-71
-256,-393,15704,511,581,-72
-256,-399,15709,511,580,-74
-256,-403,15709,511,579,-74
-256,-398,15708,511,580,-75
-256,-394,15710,511,579,-76
-256,-391,15713,511,578,-77
-256,-385,15716,511,577,-78
-256,-377,15719,511,577,-78
-256,-375,15723,511,576,-79
-256,-383,15725,511,574,-77
-256,-382,15726,511,575,-78
-256,-383,15728,511,575,-82
-256,-383,15732,511,575,-83
-256,-385,15731,511,575,-82
-256,-391,15728,511,575,-83
-256,-390,15720,511,575,-83
-256,-393,15715,511,576,-83
-256,-394,15716,511,576,-82
-256,-389,15712,511,574,-81
-256,-385,15714,511,573,-80
-256,-384,15716,511,574,-80
-256,-383,15715,511,572,-82
-256,-385,15719,511,573,-83
-256,-387,15718,511,574,-83
-256,-389,15716,511,575,-78
-256,-390,15714,511,575,-74
-256,-395,15973,256,575,-73
-256,-394,15727,511,577,-76
-256,-395,15727,511,574,-76
-256,-395,15725,511,573,-74
-256,-396,15723,511,576,-72
-256,-401,15719,511,574,-74
-256,-409,15715,511,575,-76
-256,-411,15719,511,574,-74
-256,-407,15719,511,572,-75
-256,-407,15717,511,573,-76
-256,-398,15971,256,574,-74
-256,-392,15972,256,575,-70
-256,-394,15719,511,575,-73
-256,-392,15721,511,578,-72
-256,-391,15722,511,579,-74
-256,-398,15722,511,579,-76
-256,-399,15722,511,578,-75
-256,-390,15723,511,578,-74
-256,-386,15723,511,577,-75
-256,-389,15721,511,577,-75
-256,-393,15720,511,576,-77
-256,-389,15721,511,577,-76
-256,-385,15722,511,579,-75
-256,-387,15722,511,579,-74
-256,-390,15727,511,579,-77
-256,-393,15727,511,581,-77
-256,-393,15719,511,580,-76
-256,-391,15719,511,579,-77
-256,-393,15718,511,579,-76
-256,-398,15714,511,579,-74
-256,-399,15710,511,580,-72
-256,-400,15705,511,577,-71
-256,-405,15710,511,576,-70
-256,-408,15710,511,577,-69
-256,-404,15705,511,578,-69
-256,-401,15702,511,582,-72
-256,-398,15704,511,582,-72
-256,-397,15705,511,582,-71
-256,-396,15709,511,584,-70
-256,-390,15965,256,583,-72
-256,-389,15710,511,583,-72
-256,-389,15705,511,585,-72
-256,-384,15707,511,584,-75
-256,-386,15714,511,584,-74
-256,-385,15713,511,582,-73
-256,-391,15713,511,581,-73
-256,-397,15708,511,581,-71
-256,-396,15713,511,580,-71
-256,-391,15976,256,579,-71
-256,-387,15973,256,581,-73
-256,-392,15974,256,581,-73
-256,-397,15980,256,581,-71
-256,-399,15726,511,581,-72
-256,-397,15732,511,583,-70
-256,-394,15733,511,584,-71
-256,-393,15734,511,585,-71
-256,-396,15736,511,586,-71
-256,-398,15736,511,585,-74
-256,-396,15731,511,586,-76
-256,-400,15729,511,588,-77
-256,-397,15728,511,588,-78
-256,-394,15727,511,585,-75
-256,-394,15727,511,583,-74
-256,-393,15734,511,584,-72
-256,-399,15739,511,583,-72
-256,-397,15736,511,581,-72
-256,-395,15732,511,580,-72
-256,-400,15728,511,579,-71
-256,-401,15724,511,578,-75
-256,-398,15726,511,579,-76
-256,-391,15722,511,579,-72
-256,-389,15710,511,580,-70
-256,-387,15710,511,579,-72
-256,-381,15715,511,576,-74
-256,-381,15718,511,576,-74
-256,-387,15715,511,576,-72
-256,-389,15712,511,579,-73
-256,-390,15713,511,581,-72
-256,-394,15970,256,582,-71
-256,-396,15976,256,581,-71
-256,-399,15986,256,579,-72
-256,-398,15978,256,580,-72
-256,-397,15725,511,580,-73
-256,-393,15729,511,580,-74
-256,-396,15724,511,580,-73
-256,-405,15721,511,579,-72
-256,-408,15720,511,578,-72
-256,-400,15721,511,580,-71
-256,-397,15728,511,580,-72
-256,-400,15728,511,579,-74
-256,-396,15727,511,577,-71
-256,-391,15727,511,577,-70
-256,-388,15720,511,577,-70
-256,-387,15721,511,578,-72
-256,-387,15724,511,581,-72
-256,-391,15721,511,582,-70
-256,-388,15719,511,581,-69
-256,-389,15719,511,579,-70
-256,-392,15724,511,581,-72
-256,-392,15728,511,581,-75
-256,-397,15722,511,579,-76
-256,-402,15719,511,578,-77
-256,-405,15719,511,577,-77
-256,-406,15720,511,578,-80
-256,-411,15724,511,580,-81
-256,-408,15719,511,580,-83
-256,-405,15717,511,578,-81
-256,-399,15718,511,575,-82
-256,-396,15712,511,574,-82
-256,-392,15710,511,575,-80
-256,-394,15965,256,578,-77
-256,-393,15968,256,582,-76
-256,-397,15973,256,579,-78
-256,-399,15972,256,578,-76
-256,-395,15978,256,578,-77
-256,-398,15980,256,579,-77
-256,-401,15976,256,582,-75
-256,-406,15975,256,581,-75
-256,-410,15976,256,581,-76
-256,-411,15977,256,579,-75
-256,-410,15984,256,578,-75
-256,-408,15985,256,579,-77
-256,-408,15984,256,581,-77
-256,-404,15986,256,580,-75
-256,-406,15986,256,578,-73
-256,-409,15984,256,577,-75
-256,-408,15977,256,578,-78
-256,-406,15976,256,580,-78
-256,-405,15975,256,580,-77
-256,-402,15972,256,580,-77
-256,-397,15975,256,577,-77
-256,-392,15970,256,576,-81
-256,-390,15723,511,576,-82
-256,-388,15976,256,576,-83
-256,-385,15975,256,577,-83
-256,-389,15971,256,578,-83
-256,-396,15973,256,578,-83
-256,-402,15977,256,578,-81
-256,-406,15975,256,576,-80
-256,-403,15977,256,576,-78
-256,-402,15980,256,579,-77
-256,-399,15981,256,579,-79
-256,-400,15987,256,578,-78
-256,-398,15979,256,578,-77
-256,-394,15974,256,577,-79
-256,-393,15721,511,577,-80
-256,-388,15979,256,580,-81
-256,-383,15983,256,581,-80
-256,-385,15725,511,585,-77
-256,-387,15724,511,585,-79
-256,-384,15725,511,586,-78
-256,-384,15725,511,586,-77
-256,-381,15722,511,583,-77
-256,-381,15720,511,584,-77
-256,-386,15722,511,584,-78
-256,-384,15719,511,583,-77
-256,-385,15713,511,582,-75
-256,-385,15965,256,579,-76
-256,-387,15711,511,577,-76
-256,-389,15715,511,577,-77
-256,-381,15722,511,578,-79
-256,-383,15720,511,579,-81
-256,-383,15721,511,578,-80
-256,-389,15720,511,578,-79
-256,-391,15718,511,575,-78
-256,-393,15717,511,576,-79
-256,-398,15721,511,575,-77
-256,-397,15731,511,575,-77
-256,-397,15987,256,576,-77
-256,-402,15981,256,576,-77
-256,-399,15987,256,576,-77
-256,-402,15730,511,578,-76
-256,-400,15991,256,580,-73
-256,-400,15988,256,581,-71
-256,-398,15986,256,580,-73
-256,-400,15986,256,578,-72
-256,-401,15987,256,576,-71
-256,-398,15985,256,577,-68
-256,-397,15736,511,579,-69
-256,-397,15996,256,579,-70
-256,-402,15733,511,581,-71
-256,-397,15730,511,581,-73
-256,-396,15727,511,580,-75
-256,-401,15726,511,579,-74
-256,-404,15721,511,578,-74
-256,-399,15721,511,573,-75
-256,-401,15719,511,573,-74
-256,-403,15726,511,574,-75
-256,-400,15724,511,575,-76
-256,-398,15721,511,574,-77
-256,-400,15715,511,575,-78
-256,-399,15713,511,576,-78
-256,-399,15715,511,574,-77
-256,-398,15716,511,572,-78
-256,-396,15718,511,571,-79
-256,-394,15714,511,572,-81
-256,-387,15717,511,575,-81
-256,-386,15718,511,575,-78
-256,-382,15722,511,574,-76
-256,-376,15718,511,574,-75
-256,-380,15718,511,573,-75
-256,-384,15716,511,574,-75
-256,-387,15712,511,574,-76
-256,-388,15705,511,574,-76
-256,-391,15701,511,573,-75
-256,-393,15704,511,573,-73
-256,-396,15707,511,573,-74
-256,-391,15707,511,574,-75
-256,-387,15705,511,574,-75
-256,-389,15709,511,575,-78
-256,-387,15704,511,577,-81
-256,-389,15707,511,577,-81
-256,-387,15710,511,578,-80
-256,-390,15708,511,578,-79
-256,-392,15711,511,578,-78
-256,-389,15967,256,578,-79
-256,-391,15966,256,578,-79
-256,-397,15970,256,580,-79
-256,-396,15965,256,579,-78
-256,-400,15965,256,578,-80
-256,-398,15966,256,581,-81
-256,-403,15962,256,583,-82
-256,-405,15960,256,583,-81
-256,-404,15965,256,581,-80
-256,-407,15967,256,577,-79
-256,-406,15968,256,577,-77
-256,-395,15962,256,578,-76
-256,-395,15956,256,579,-75
-256,-394,15954,256,581,-76
-256,-391,15952,256,580,-76
-256,-395,15951,256,579,-73
-256,-398,15696,511,577,-72
-256,-396,15699,511,581,-73
-256,-397,15698,511,583,-76
-256,-402,15702,511,583,-77
-256,-409,15704,511,584,-75
-256,-409,15960,256,582,-75
-256,-410,15968,256,581,-74
-256,-413,15712,511,581,-75
-256,-405,15710,511,582,-76
-256,-400,15715,511,580,-77
-256,-396,15725,511,579,-77
-256,-397,15724,511,580,-76
-256,-396,15725,511,577,-74
-256,-395,15722,511,577,-72
-256,-391,15719,511,575,-69
-256,-394,15717,511,575,-73
-256,-399,15718,511,576,-75
-256,-400,15720,511,576,-74
-256,-399,15724,511,577,-74
-256,-403,15726,511,576,-71
-256,-400,15728,511,576,-73
-256,-405,15726,511,576,-72
-256,-404,15720,511,577,-71
-256,-405,15717,511,578,-71
-256,-405,15718,511,579,-71
-256,-408,15720,511,578,-73
-256,-405,15716,511,577,-75
-256,-405,15716,511,579,-75
-256,-404,15723,511,577,-78
-256,-402,15725,511,576,-79
-256,-405,15719,511,575,-77
-256,-404,15717,511,574,-77
-256,-401,15971,256,575,-72
-256,-390,15719,511,573,-71
-256,-388,15719,511,572,-71
-256,-388,15971,256,574,-73
-256,-384,15713,511,572,-71
-256,-386,15716,511,572,-72
-256,-390,15718,511,573,-74
-256,-395,15720,511,573,-75
-256,-397,15714,511,572,-75
-256,-393,15714,511,570,-75
-256,-395,15717,511,570,-77
-256,-397,15718,511,572,-77
-256,-393,15718,511,572,-75
-256,-394,15718,511,572,-73
-256,-392,15718,511,573,-73
-256,-387,15722,511,572,-75
-256,-383,15726,511,572,-74
-256,-388,15725,511,573,-75
-256,-394,15724,511,573,-75
-256,-392,15723,511,573,-74
-256,-390,15721,511,571,-76
-256,-386,15726,511,571,-73
-256,-388,15728,511,572,-75
-256,-388,15723,511,571,-75
-256,-389,15722,511,571,-74
-256,-385,15723,511,571,-75
-256,-383,15721,511,570,-73
-256,-390,15720,511,569,-70
-256,-382,15722,511,569,-71
-256,-382,15724,511,571,-71
-256,-383,15973,256,570,-71
-256,-385,15715,511,571,-70
-256,-387,15974,256,571,-69
-256,-388,15714,511,573,-67
-256,-394,15711,511,578,-66
-256,-396,15715,511,577,-69
-256,-394,15722,511,576,-67
-256,-393,15723,511,578,-69
-256,-391,15722,511,580,-68
-256,-392,15719,511,580,-68
-256,-385,15721,511,580,-69
-256,-388,15718,511,581,-71
-256,-382,15714,511,578,-70
-256,-376,15717,511,579,-71
-256,-378,15717,511,579,-74
-256,-380,15974,256,578,-72
-256,-380,15978,256,578,-73
-256,-386,15972,256,580,-74
-256,-391,15968,256,580,-73
-256,-394,15970,256,579,-73
-256,-391,15973,256,579,-76
-256,-388,15970,256,581,-77
-256,-392,15972,256,583,-74
-256,-394,15976,256,581,-78
-256,-399,15978,256,581,-77
-256,-398,15977,256,581,-80
-256,-404,15978,256,579,-81
-256,-404,15981,256,574,-82
-256,-399,15975,256,572,-80
-256,-396,15981,256,573,-83
-256,-396,15981,256,575,-83
-256,-400,15716,511,572,-83
-256,-402,15973,256,572,-80
-256,-401,15969,256,572,-79
-256,-402,15969,256,573,-80
-256,-403,15971,256,571,-81
-256,-404,15716,511,573,-81
-256,-402,15713,511,574,-79
-256,-399,15709,511,574,-78
-256,-401,15705,511,573,-80
-256,-402,15707,511,570,-80
-256,-399,15704,511,568,-80
-256,-401,15711,511,568,-78
-256,-397,15716,511,571,-79
-256,-398,15719,511,571,-78
-256,-401,15721,511,570,-78
-256,-404,15723,511,570,-81
-256,-404,15724,511,571,-79
-256,-396,15731,511,570,-76
-256,-396,15733,511,571,-77
-256,-394,15736,511,571,-77
-256,-394,15732,511,570,-79
-256,-391,15728,511,573,-79
-256,-390,15728,511,573,-79
-256,-388,15728,511,574,-80
-256,-392,15731,511,573,-83
-256,-397,15732,511,572,-83
-256,-399,15731,511,570,-84
-256,-394,15734,511,569,-83
-256,-388,15730,511,569,-81
-256,-387,15726,511,569,-78
-256,-386,15724,511,569,-78
-256,-390,15728,511,572,-77
-256,-386,15722,511,572,-76
-256,-387,15722,511,574,-74
-256,-393,15719,511,575,-75
-256,-390,15712,511,574,-77
-256,-394,15712,511,572,-78
-256,-391,15724,511,571,-78
-256,-392,15715,511,569,-78
-256,-389,15711,511,567,-75
-256,-391,15704,511,569,-75
-256,-393,15961,256,572,-75
-256,-387,15708,511,574,-76
-256,-386,15715,511,576,-75
-256,-396,15714,511,575,-75
-256,-392,15720,511,573,-73
-256,-390,15720,511,575,-74
-256,-384,15721,511,574,-75
-256,-379,15724,511,577,-73
-256,-369,15722,511,581,-72
-256,-372,15721,511,579,-74
-256,-375,15721,511,578,-77
-256,-379,15724,511,580,-76
-256,-379,15719,511,579,-76
-256,-384,15720,511,578,-79
-256,-386,15977,256,580,-78
-256,-386,15718,511,582,-75
-256,-392,15716,511,579,-78
-256,-387,15719,511,578,-76
-256,-388,15719,511,579,-76
-256,-394,15719,511,581,-75
-256,-398,15718,511,581,-74
-256,-397,15717,511,581,-73
-256,-393,15723,511,582,-76
-256,-390,15720,511,582,-74
-256,-392,15721,511,585,-72
-256,-393,15721,511,582,-72
-256,-392,15720,511,581,-73
-256,-393,15715,511,580,-72
-256,-397,15710,511,580,-75
-256,-394,15716,511,581,-75
-256,-402,15722,511,581,-75
-256,-407,15723,511,581,-76
-256,-407,15721,511,583,-76
-256,-403,15722,511,584,-73
-256,-397,15725,511,584,-72
-256,-393,15721,511,585,-73
-256,-390,15720,511,583,-74
-256,-388,15720,511,582,-76
-256,-389,15715,511,580,-79
-256,-389,15710,511,583,-79
-256,-387,15706,511,582,-77
-256,-386,15700,511,579,-75
-256,-390,15697,511,580,-75
-256,-391,15696,511,580,-74
-256,-393,15699,511,581,-76
-256,-392,15702,511,582,-74
-256,-390,15696,511,580,-74
-256,-393,15697,511,583,-74
-256,-389,15708,511,583,-77
-256,-389,15712,511,581,-76
-256,-390,15713,511,580,-76
-256,-394,15717,511,580,-77
-256,-401,15714,511,580,-76
-256,-404,15713,511,580,-78
-256,-408,15717,511,578,-78
-256,-410,15718,511,578,-76
-256,-408,15717,511,578,-74
-256,-407,15722,511,576,-75
-256,-406,15725,511,575,-75
-256,-396,15724,511,574,-74
-256,-394,15725,511,576,-74
-256,-389,15717,511,575,-75
-256,-389,15722,511,575,-76
-256,-384,15726,511,574,-72
-256,-390,15728,511,572,-71
-256,-389,15728,511,574,-73
-256,-384,15727,511,576,-73
-256,-382,15720,511,578,-73
-256,-383,15720,511,578,-75
-256,-387,15727,511,578,-73
-256,-387,15982,256,580,-72
-256,-386,15978,256,579,-75
-256,-384,15983,256,579,-77
-256,-390,15984,256,581,-79
-256,-389,15728,511,580,-77
-256,-386,15728,511,580,-74
-256,-384,15983,256,579,-74
-256,-383,15725,511,579,-77
-256,-380,15727,511,581,-79
-256,-386,15724,511,581,-78
-256,-394,15730,511,580,-81
-256,-395,15734,511,579,-82
-256,-397,15987,256,578,-82
-256,-395,15989,256,581,-82
-256,-388,15988,256,582,-77
-256,-382,15989,256,579,-76
-256,-383,15990,256,579,-77
-256,-386,15990,256,580,-76
-256,-390,15997,256,580,-72
-256,-385,15738,511,580,-72
-256,-382,15990,256,579,-68
-256,-382,15986,256,579,-69
-256,-380,15722,511,580,-67
-256,-381,15720,511,582,-66
-256,-381,15724,511,581,-68
-256,-381,15972,256,581,-69
-256,-384,15711,511,580,-70
-256,-379,15710,511,581,-72
-256,-379,15964,256,580,-72
-256,-377,15704,511,580,-71
-256,-377,15963,256,579,-71
-256,-381,15965,256,580,-70
-256,-384,15963,256,577,-72
-256,-385,15963,256,578,-72
-256,-383,15968,256,578,-74
-256,-384,15965,256,575,-73
-256,-391,15969,256,577,-75
-256,-391,15968,256,577,-75
-256,-390,15970,256,575,-73
-256,-395,15972,256,573,-74
-256,-396,15974,256,571,-74
-256,-393,15976,256,568,-71
-256,-390,15978,256,568,-71
-256,-388,15721,511,573,-72
-256,-385,15717,511,575,-73
-256,-384,15718,511,574,-70
-256,-384,15713,511,575,-69
-256,-386,15713,511,579,-69
-256,-381,15718,511,582,-69
-256,-378,15718,511,582,-68
-256,-380,15719,511,580,-67
-256,-380,15719,511,579,-67
-256,-378,15720,511,579,-68
-256,-381,15713,511,577,-71
-256,-386,15710,511,576,-70
-256,-393,15713,511,575,-70
-256,-395,15717,511,575,-73
-256,-392,15718,511,576,-73
-256,-384,15722,511,577,-75
-256,-391,15725,511,577,-75
-256,-392,15721,511,576,-74
-256,-391,15719,511,576,-75
-256,-391,15716,511,578,-75
-256,-395,15715,511,578,-77
-256,-393,15717,511,577,-76
-256,-393,15722,511,579,-76
-256,-392,15719,511,579,-74
-256,-388,15714,511,579,-71
-256,-387,15717,511,579,-72
-256,-394,15716,511,578,-73
-256,-398,15712,511,579,-72
-256,-405,15711,511,579,-70
-256,-398,15713,511,579,-72
-256,-397,15717,511,576,-73
-256,-402,15721,511,575,-71
-256,-395,15726,511,580,-70
-256,-397,15723,511,583,-71
-256,-405,15720,511,583,-70
-256,-407,15721,511,583,-70
-256,-407,15723,511,583,-73
-256,-408,15722,511,581,-71
-256,-410,15718,511,579,-70
-256,-410,15717,511,581,-72
-256,-413,15971,256,578,-70
-256,-413,15968,256,574,-70
-256,-414,15974,256,574,-69
-256,-410,15981,256,576,-69
-256,-409,15980,256,577,-70
-256,-408,15979,256,577,-71
-256,-412,15982,256,579,-71
-256,-413,15976,256,581,-69
-256,-404,15721,511,580,-67
-256,-402,15715,511,578,-66
-256,-399,15715,511,577,-68
-256,-392,15723,511,577,-70
-256,-386,15725,511,579,-69
-256,-383,15726,511,581,-71
-256,-385,15726,511,582,-68
-256,-388,15728,511,580,-70
-256,-387,15729,511,580,-71
-256,-388,15726,511,579,-71
-256,-382,15728,511,577,-71
-256,-381,15727,511,576,-73
-256,-378,15724,511,577,-77
-256,-381,15727,511,577,-74
-256,-388,15721,511,576,-73
-256,-388,15719,511,577,-72
-256,-392,15725,511,575,-73
-256,-389,15732,511,572,-75
-256,-386,15736,511,573,-76
-256,-382,15737,511,575,-77
-256,-380,15736,511,574,-78
-256,-382,15986,256,571,-80
-256,-377,15980,256,571,-83
-256,-379,15978,256,573,-82
-256,-381,15980,256,573,-82
-256,-383,15976,256,573,-83
-256,-385,15976,256,575,-83
-256,-386,15971,256,577,-84
-256,-385,15972,256,577,-84
-256,-384,15973,256,578,-83
-256,-383,15718,511,578,-85
-256,-379,15721,511,577,-82
-256,-381,15726,511,577,-78
-256,-381,15725,511,575,-78
-256,-383,15728,511,575,-77
-256,-383,15721,511,576,-78
-256,-387,15718,511,576,-77
-256,-386,15714,511,575,-75
-256,-391,15708,511,576,-78
-256,-390,15703,511,577,-77
-256,-387,15705,511,578,-78
-256,-392,15708,511,579,-77
-256,-392,15709,511,579,-79
-256,-393,15707,511,579,-82
-256,-393,15709,511,578,-81
-256,-392,15714,511,576,-81
-256,-390,15718,511,577,-78
-256,-384,15719,511,579,-79
-256,-387,15725,511,580,-77
-256,-391,15719,511,578,-77
-256,-394,15712,511,577,-75
-256,-394,15711,511,579,-75
-256,-397,15708,511,577,-77
-256,-402,15707,511,577,-78
-256,-406,15708,511,577,-77
-256,-410,15697,511,578,-74
-256,-410,15698,511,576,-73
-256,-400,15699,511,575,-72
-256,-394,15701,511,574,-73
-256,-395,15704,511,577,-72
-256,-394,15703,511,576,-70
-256,-392,15703,511,574,-67
-256,-390,15706,511,575,-66
-256,-388,15707,511,576,-68
-256,-385,15704,511,574,-70
-256,-385,15710,511,574,-70
-256,-385,15718,511,575,-72
-256,-384,15716,511,572,-75
-256,-388,15708,511,572,-74
-256,-391,15710,511,573,-75
-256,-392,15710,511,574,-78
-256,-395,15714,511,573,-78
-256,-389,15716,511,572,-74
-256,-387,15716,511,572,-72
-256,-386,15717,511,573,-71
-256,-385,15716,511,575,-71
-256,-385,15719,511,574,-72
-256,-388,15717,511,575,-72
-256,-387,15712,511,578,-72
-256,-386,15718,511,580,-70
-256,-385,15718,511,577,-68
-256,-380,15719,511,579,-68
-256,-377,15721,511,577,-68
-256,-385,15719,511,576,-67
-256,-390,15717,511,576,-68
-256,-392,15720,511,575,-66
-256,-398,15720,511,574,-68
-256,-399,15980,256,575,-67
-256,-400,15983,256,577,-66
-256,-397,15985,256,578,-68
-256,-395,15986,256,577,-70
-256,-394,15727,511,577,-71
-256,-394,15722,511,576,-74
-256,-392,15719,511,574,-73
-256,-396,15715,511,574,-72
-256,-396,15712,511,579,-75
-256,-391,15717,511,580,-79
-256,-391,15715,511,581,-80
-256,-392,15716,511,581,-78
-256,-385,15719,511,580,-79
-256,-390,15716,511,579,-77
-256,-393,15718,511,579,-77
-256,-389,15718,511,578,-77
-256,-390,15724,511,580,-80
-256,-396,15985,256,580,-81
-256,-395,15732,511,580,-79
-256,-391,15733,511,580,-78
-256,-391,15736,511,580,-77
-256,-392,15995,256,582,-75
-256,-390,15736,511,579,-75
-256,-390,15740,511,580,-78
-256,-387,15736,511,582,-80
-256,-387,15736,511,583,-79
-256,-385,15735,511,581,-81
-256,-385,15727,511,583,-81
-256,-380,15725,511,581,-78
-256,-380,15722,511,583,-75
-256,-378,15720,511,582,-75
-256,-382,15716,511,582,-79
-256,-385,15719,511,581,-79
-256,-383,15717,511,581,-78
-256,-383,15716,511,585,-73
-256,-386,15713,511,588,-73
-256,-392,15712,511,587,-73
-256,-396,15710,511,586,-73
-256,-396,15708,511,585,-74
-256,-391,15706,511,584,-74
-256,-389,15710,511,583,-73
-256,-389,15707,511,581,-73
-256,-392,15708,511,580,-74
-256,-390,15709,511,582,-74
-256,-394,15707,511,580,-73
-256,-397,15706,511,579,-73
-256,-392,15710,511,579,-74
-256,-390,15712,511,579,-73
-256,-390,15712,511,582,-76
-256,-390,15713,511,582,-77
-256,-386,15712,511,581,-77
-256,-384,15714,511,580,-76
-256,-387,15716,511,579,-74
-256,-393,15723,511,578,-75
-256,-404,15718,511,578,-75
-256,-409,15715,511,580,-75
-256,-414,15710,511,580,-78
-256,-416,15718,511,579,-79
-256,-411,15717,511,579,-78
-256,-409,15709,511,577,-78
-256,-404,15714,511,576,-80
-256,-399,15711,511,577,-83
-256,-399,15714,511,578,-81
-256,-401,15712,511,578,-81
-256,-400,15714,511,575,-82
-256,-397,15713,511,576,-79
-256,-403,15713,511,576,-78
-256,-404,15970,256,573,-78
-256,-397,15965,256,571,-77
-256,-398,15967,256,570,-78
-256,-396,15971,256,570,-79
-256,-404,15968,256,571,-79
-256,-408,15965,256,572,-79
-256,-408,15975,256,572,-81
-256,-405,15971,256,571,-83
-256,-403,15720,511,572,-82
-256,-400,15715,511,575,-81
-256,-402,15969,256,573,-81
-256,-400,15718,511,572,-82
-256,-393,15722,511,573,-80
-256,-390,15727,511,571,-80
-256,-396,15719,511,571,-81
-256,-394,15721,511,572,-81
-256,-392,15726,511,570,-79
-256,-398,15982,256,574,-79
-256,-393,15983,256,575,-79
-256,-391,15728,511,578,-80
-256,-391,15732,511,579,-77
-256,-394,15729,511,578,-79
-256,-393,15732,511,579,-81
-256,-392,15738,511,576,-81
-256,-393,15736,511,575,-81
-256,-391,15734,511,576,-78
-256,-386,15734,511,576,-77
-256,-380,15732,511,577,-78
-256,-379,15729,511,579,-81
-256,-383,15730,511,580,-82
-256,-384,15727,511,580,-81
-256,-383,15720,511,580,-80
-256,-386,15717,511,582,-79
-256,-388,15719,511,580,-78
-256,-388,15719,511,579,-79
-256,-387,15716,511,579,-79
-256,-380,15717,511,579,-78
-256,-378,15718,511,580,-78
-256,-376,15716,511,578,-78
-256,-377,15716,511,581,-78
-256,-384,15717,511,581,-78
-256,-385,15716,511,580,-79
-256,-387,15720,511,583,-76
-256,-389,15723,511,584,-74
-256,-391,15731,511,581,-75
-256,-388,15724,511,581,-74
-256,-385,15720,511,581,-73
-256,-383,15725,511,582,-72
-256,-381,15728,511,584,-73
-256,-389,15729,511,583,-73
-256,-389,15726,511,581,-73
-256,-387,15721,511,581,-72
-256,-384,15724,511,582,-73
-256,-385,15729,511,583,-73
-256,-386,15990,256,582,-72
-256,-388,15994,256,581,-72
-256,-386,15992,256,581,-73
-256,-378,15731,511,579,-71
-256,-375,15729,511,578,-68
-256,-377,15978,256,577,-71
-256,-373,15720,511,577,-75
-256,-372,15974,256,578,-75
-256,-373,15970,256,578,-76
-256,-375,15709,511,575,-76
-256,-375,15710,511,574,-76
-256,-380,15708,511,572,-79
-256,-381,15711,511,573,-78
-256,-382,15712,511,574,-76
-256,-387,15715,511,574,-76
-256,-385,15716,511,574,-76
-256,-390,15714,511,575,-75
-256,-392,15714,511,578,-75
-256,-394,15713,511,578,-75
-256,-396,15710,511,577,-72
-256,-395,15710,511,578,-72
-256,-393,15712,511,577,-71
-256,-383,15714,511,575,-73
-256,-388,15970,256,574,-74
-256,-391,15712,511,573,-74
-256,-395,15714,511,571,-74
-256,-399,15716,511,570,-75
-256,-396,15711,511,572,-74
-256,-396,15706,511,573,-74
-256,-390,15705,511,572,-74
-256,-390,15967,256,573,-73
-256,-389,15964,256,574,-73
-256,-387,15964,256,576,-70
-256,-387,15972,256,580,-72
-256,-387,15967,256,579,-76
-256,-385,15704,511,578,-79
-256,-385,15704,511,577,-77
-256,-385,15708,511,578,-74
-256,-385,15706,511,577,-72
-256,-382,15967,256,578,-73
-256,-382,15967,256,580,-75
-256,-381,15714,511,581,-74
-256,-387,15964,256,581,-73
-256,-385,15707,511,581,-71
-256,-388,15706,511,581,-70
-256,-390,15713,511,579,-73
-256,-388,15715,511,578,-75
-256,-389,15722,511,581,-76
-256,-387,15728,511,577,-76
-256,-389,15727,511,577,-76
-256,-389,15725,511,577,-76
-256,-392,15726,511,577,-76
-256,-394,15731,511,576,-74
-256,-391,15729,511,575,-74
-256,-388,15722,511,574,-74
-256,-386,15728,511,577,-71
-256,-386,15731,511,581,-70
-256,-381,15728,511,581,-70
-256,-377,15723,511,578,-71
-256,-379,15723,511,578,-71
-256,-380,15722,511,575,-69
-256,-383,15726,511,573,-71
-256,-383,15724,511,574,-73
-256,-385,15726,511,574,-72
-256,-380,15726,511,576,-72
-256,-384,15723,511,574,-71
-256,-378,15719,511,574,-71
-256,-375,15728,511,573,-73
-256,-375,15733,511,573,-73
-256,-375,15730,511,575,-73
-256,-378,15726,511,572,-73
-256,-376,15727,511,570,-72
-256,-378,15729,511,571,-76
-256,-381,15729,511,572,-76
-256,-392,15723,511,570,-76
-256,-389,15728,511,569,-80
-256,-385,15729,511,569,-81
-256,-386,15730,511,569,-78
-256,-388,15731,511,571,-78
-256,-386,15728,511,572,-77
-256,-391,15728,511,570,-76
-256,-389,15731,511,572,-74
-256,-383,15728,511,574,-75
-256,-385,15979,256,575,-77
-256,-393,15973,256,575,-76
-256,-392,15967,256,575,-77
-256,-390,15706,511,574,-78
-256,-394,15706,511,575,-77
-256,-392,15704,511,575,-76
-256,-397,15957,256,574,-73
-256,-394,15955,256,576,-72
-256,-394,15701,511,576,-73
-256,-397,15702,511,573,-74
-256,-399,15701,511,573,-73
-256,-399,15955,256,574,-74
-256,-400,15960,256,575,-74
-256,-396,15701,511,575,-76
-256,-395,15702,511,575,-76
-256,-393,15704,511,573,-73
-256,-391,15710,511,573,-72
-256,-392,15713,511,573,-71
-256,-391,15717,511,574,-73
-256,-384,15714,511,574,-74
-256,-381,15703,511,575,-74
-256,-379,15702,511,575,-72
-256,-382,15706,511,575,-73
-256,-378,15702,511,576,-76
-256,-380,15702,511,576,-78
-256,-380,15699,511,577,-79
-256,-386,15696,511,578,-76
-256,-382,15957,256,579,-74
-256,-381,15952,256,576,-75
-256,-380,15697,511,576,-76
-256,-379,15699,511,577,-76
-256,-380,15703,511,575,-78
-256,-377,15705,511,574,-79
-256,-384,15708,511,576,-79
-256,-386,15708,511,579,-80
-256,-388,15721,511,581,-78
-256,-392,15723,511,581,-77
-256,-394,15722,511,578,-76
-256,-399,15720,511,578,-76
-256,-401,15720,511,575,-79
-256,-399,15719,511,573,-80
-256,-401,15722,511,573,-81
-256,-400,15727,511,574,-81
-256,-396,15731,511,574,-80
-256,-398,15731,511,576,-80
-256,-394,15732,511,577,-83
-256,-390,15734,511,579,-85
-256,-386,15734,511,581,-84
-256,-387,15730,511,580,-82
-256,-391,15991,256,577,-81
-256,-394,15731,511,575,-81
-256,-397,15727,511,574,-80
-256,-402,15725,511,576,-79
-256,-405,15976,256,574,-77
-256,-400,15722,511,574,-79
-256,-395,15721,511,574,-80
-256,-398,15725,511,575,-79
-256,-401,15726,511,575,-78
-256,-400,15730,511,574,-78
-256,-401,15727,511,577,-79
-256,-400,15728,511,577,-79
-256,-403,15721,511,575,-78
-256,-407,15719,511,572,-79
-256,-406,15719,511,572,-78
-256,-405,15718,511,573,-79
-256,-405,15714,511,572,-80
-256,-405,15706,511,572,-75
-256,-403,15709,511,573,-73
-256,-401,15714,511,576,-76
-256,-403,15711,511,575,-77
-256,-399,15714,511,574,-74
-256,-394,15711,511,573,-72
-256,-394,15711,511,574,-72
-256,-392,15708,511,574,-71
-256,-393,15708,511,576,-73
-256,-394,15711,511,573,-77
-256,-393,15715,511,572,-78
-256,-394,15714,511,574,-78
-256,-392,15712,511,576,-80
-256,-393,15707,511,576,-82
-256,-399,15707,511,577,-81
-256,-402,15705,511,580,-79
-256,-395,15708,511,580,-78
-256,-392,15710,511,577,-81
-256,-392,15707,511,576,-81
-256,-388,15703,511,577,-78
-256,-381,15704,511,577,-79
-256,-380,15703,511,576,-78
-256,-388,15702,511,577,-78
-256,-394,15705,511,577,-77
-256,-394,15707,511,575,-75
-256,-396,15970,256,576,-75
-256,-392,15712,511,576,-73
-256,-390,15961,256,576,-70
-256,-390,15953,256,577,-70
-256,-392,15955,256,576,-68
-256,-387,15699,511,578,-70
-256,-385,15698,511,579,-69
-256,-388,15702,511,577,-68
-256,-392,15703,511,577,-70
-256,-393,15966,256,577,-74
-256,-397,15716,511,577,-76
-256,-395,15985,256,577,-77
-256,-393,15980,256,577,-78
-256,-397,15976,256,579,-76
-256,-395,15972,256,580,-76
-256,-395,15972,256,580,-73
-256,-388,15971,256,578,-72
-256,-389,15714,511,578,-71
-256,-385,15714,511,579,-70
-256,-385,15715,511,580,-70
-256,-386,15720,511,578,-69
-256,-388,15723,511,578,-69
-256,-392,15718,511,580,-68
-256,-395,15711,511,581,-69
-256,-396,15713,511,582,-70
-256,-391,15714,511,582,-69
-256,-387,15711,511,582,-69
-256,-387,15712,511,582,-69
-256,-386,15714,511,581,-69
-256,-384,15713,511,582,-67
-256,-385,15718,511,581,-67
-256,-380,15717,511,580,-69
-256,-388,15716,511,581,-71
-256,-390,15716,511,580,-73
-256,-393,15716,511,579,-73
-256,-390,15721,511,576,-70
-256,-388,15722,511,573,-74
-256,-389,15722,511,574,-74
-256,-387,15728,511,574,-74
-256,-382,15728,511,573,-75
-256,-381,15978,256,574,-75
-256,-388,15718,511,573,-72
-256,-388,15718,511,573,-71
-256,-390,15719,511,573,-72
-256,-394,15726,511,575,-73
-256,-403,15720,511,575,-72
-256,-404,15718,511,576,-73
-256,-402,15716,511,576,-76
-256,-404,15709,511,572,-76
-256,-400,15710,511,571,-75
-256,-400,15707,511,571,-74
-256,-402,15711,511,572,-74
-256,-404,15712,511,575,-76
-256,-407,15716,511,575,-75
-256,-403,15719,511,576,-75
-256,-401,15720,511,577,-72
-256,-403,15722,511,578,-70
-256,-398,15718,511,577,-71
-256,-397,15717,511,575,-72
-256,-396,15717,511,576,-74
-256,-395,15723,511,582,-73
-256,-389,15722,511,582,-72
-256,-389,15720,511,582,-70
-256,-389,15721,511,586,-70
-256,-391,15724,511,586,-70
-256,-392,15727,511,585,-70
-256,-389,15727,511,585,-70
-256,-391,15726,511,585,-69
-256,-395,15724,511,583,-66
-256,-396,15731,511,581,-69
-256,-396,15992,256,583,-71
-256,-386,15995,256,583,-72
-256,-390,15991,256,583,-69
-256,-389,15989,256,583,-72
-256,-385,15989,256,584,-73
-256,-392,15989,256,584,-71
-256,-395,15983,256,584,-74
-256,-394,15979,256,584,-77
-256,-387,15730,511,584,-75
-256,-385,15730,511,584,-73
-256,-384,15982,256,582,-72
-256,-385,15722,511,583,-74
-256,-391,15722,511,584,-74
-256,-388,15722,511,582,-74
-256,-392,15726,511,580,-77
-256,-388,15724,511,579,-79
-256,-390,15723,511,578,-76
-256,-395,15723,511,577,-73
-256,-400,15718,511,579,-75
-256,-403,15716,511,579,-78
-256,-404,15712,511,580,-76
-256,-397,15718,511,584,-74
-256,-389,15712,511,583,-76
-256,-392,15971,256,582,-76
-256,-396,15721,511,581,-76
-256,-392,15985,256,577,-78
-256,-392,15988,256,575,-80
-256,-397,15990,256,578,-79
-256,-397,15729,511,578,-79
-256,-397,15730,511,577,-79
-256,-396,15728,511,577,-80
-256,-396,15729,511,579,-81
-256,-393,15730,511,580,-81
-256,-392,15727,511,579,-76
-256,-394,15722,511,577,-76
-256,-393,15724,511,578,-74
-256,-390,15725,511,578,-72
-256,-393,15723,511,576,-73
-256,-392,15716,511,577,-72
-256,-386,15712,511,577,-72
-256,-388,15708,511,578,-74
-256,-384,15710,511,579,-75
-256,-378,15711,511,579,-75
-256,-379,15712,511,578,-75
-256,-378,15716,511,577,-77
-256,-384,15719,511,576,-76
-256,-390,15720,511,579,-74
-256,-390,15716,511,577,-74
-256,-393,15712,511,576,-73
-256,-395,15714,511,576,-76
-256,-395,15714,511,578,-75
-256,-398,15714,511,579,-71
-256,-392,15717,511,577,-75
-256,-390,15720,511,578,-75
-256,-392,15724,511,576,-75
-256,-394,15721,511,575,-75
-256,-395,15722,511,577,-72
-256,-395,15716,511,578,-71
-256,-395,15717,511,578,-72
-256,-394,15723,511,579,-74
-256,-392,15727,511,578,-74
-256,-396,15732,511,577,-73
-256,-390,15733,511,577,-70
-256,-394,15727,511,576,-69
-256,-396,15726,511,574,-69
-256,-394,15721,511,574,-72
-256,-397,15722,511,574,-70
-256,-398,15720,511,573,-69
-256,-401,15721,511,573,-69
-256,-404,15721,511,574,-70
-256,-402,15719,511,577,-72
-256,-407,15715,511,575,-74
-256,-405,15718,511,575,-70
-256,-398,15716,511,572,-71
-256,-389,15709,511,570,-73
-256,-383,15709,511,570,-74
-256,-381,15711,511,572,-73
-256,-382,15711,511,572,-71
-256,-387,15712,511,572,-73
-256,-385,15712,511,574,-74
-256,-393,15709,511,576,-74
-256,-393,15706,511,578,-76
-256,-392,15703,511,577,-76
-256,-387,15699,511,579,-77
-256,-383,15699,511,578,-75
-256,-383,15707,511,578,-73
-256,-383,15708,511,578,-77
-256,-382,15715,511,579,-78
-256,-384,15716,511,581,-75
-256,-385,15724,511,581,-76
-256,-390,15723,511,582,-77
-256,-391,15724,511,582,-77
-256,-389,15722,511,584,-75
-256,-389,15717,511,585,-73
-256,-389,15718,511,585,-76
-256,-381,15711,511,584,-77
-256,-381,15711,511,584,-75
-256,-377,15710,511,581,-72
-256,-374,15708,511,579,-72
-256,-374,15707,511,579,-73
-256,-368,15709,511,581,-72
-256,-372,15713,511,582,-74
-256,-376,15713,511,583,-75
-256,-379,15709,511,583,-74
-256,-376,15712,511,584,-73
-256,-375,15712,511,584,-73
-256,-374,15710,511,583,-73
-256,-374,15714,511,583,-72
-256,-371,15717,511,585,-72
-256,-376,15712,511,585,-74
-256,-369,15710,511,584,-73
-256,-364,15717,511,585,-72
-256,-364,15720,511,583,-72
-256,-366,15717,511,583,-72
-256,-369,15975,256,585,-74
-256,-367,15722,511,586,-76
-256,-368,15972,256,581,-76
-256,-370,15970,256,579,-76
-256,-379,15715,511,580,-77
-256,-383,15721,511,581,-79
-256,-380,15721,511,581,-82
-256,-387,15725,511,579,-81
-256,-394,15725,511,578,-80
-256,-398,15729,511,577,-79
-256,-402,15987,256,577,-76
-256,-403,15724,511,578,-78
-256,-395,15974,256,579,-80
-256,-391,15714,511,580,-78
-256,-396,15717,511,578,-78
-256,-400,15978,256,577,-76
-256,-402,15724,511,578,-74
-256,-396,15985,256,581,-73
-256,-393,15990,256,581,-74
-256,-400,15733,511,581,-76
-256,-399,15992,256,579,-76
-256,-393,15988,256,577,-74
-256,-390,15983,256,577,-78
-256,-390,15976,256,577,-78
-256,-389,15978,256,577,-76
-256,-381,15728,511,577,-75
-256,-381,15727,511,579,-76
-256,-382,15723,511,578,-76
-256,-387,15720,511,578,-76
-256,-388,15722,511,581,-77
-256,-388,15723,511,582,-76
-256,-382,15724,511,583,-76
-256,-381,15726,511,580,-77
-256,-386,15725,511,580,-77
-256,-385,15716,511,581,-75
-256,-389,15723,511,577,-75
-256,-389,15725,511,575,-78
-256,-390,15727,511,576,-79
-256,-388,15730,511,578,-79
-256,-392,15733,511,575,-76
-256,-389,15728,511,573,-75
-256,-389,15722,511,576,-79
-256,-397,15722,511,576,-82
-256,-389,15730,511,575,-78
-256,-384,15734,511,573,-78
-256,-385,15739,511,572,-78
-256,-388,15736,511,574,-77
-256,-389,15740,511,577,-77
-256,-392,15743,511,576,-79
-256,-386,15748,511,577,-79
-256,-390,15747,511,578,-78
-256,-391,15745,511,578,-78
-256,-390,15749,511,579,-79
-256,-390,15745,511,579,-77
-256,-394,15742,511,578,-73
-256,-396,15733,511,577,-72
-256,-395,15733,511,577,-71
-256,-391,15738,511,576,-71
-256,-391,15734,511,576,-71
-256,-387,15732,511,575,-70
-256,-386,15732,511,574,-70
-256,-386,15731,511,573,-71
-256,-388,15729,511,575,-67
-256,-388,15723,511,575,-68
-256,-390,15725,511,574,-70
-256,-391,15727,511,573,-68
-256,-393,15726,511,574,-67
-256,-393,15728,511,579,-69
-256,-383,15725,511,580,-69
-256,-384,15724,511,579,-69
-256,-383,15726,511,578,-71
-256,-383,15724,511,578,-72
-256,-382,15731,511,579,-70
-256,-384,15732,511,580,-69
-256,-387,15728,511,579,-67
-256,-385,15728,511,581,-69
-256,-388,15729,511,580,-68
-256,-387,15728,511,578,-70
-256,-392,15729,511,580,-72
-256,-395,15729,511,581,-69
-256,-397,15728,511,581,-70
-256,-395,15724,511,582,-71
-256,-397,15721,511,582,-72
-256,-395,15717,511,581,-73
-256,-396,15720,511,581,-76
-256,-394,15718,511,582,-75
-256,-397,15716,511,583,-74
-256,-395,15714,511,580,-76
-256,-396,15717,511,581,-76
-256,-396,15721,511,582,-75
-256,-392,15725,511,581,-76
-256,-394,15727,511,583,-75
-256,-388,15732,511,580,-75
-256,-380,15732,511,579,-77
-256,-381,15730,511,578,-78
-256,-384,15727,511,578,-80
-256,-387,15728,511,577,-80
-256,-385,15725,511,578,-76
-256,-387,15720,511,579,-74
-256,-394,15721,511,579,-73
-256,-397,15721,511,577,-73
-256,-398,15725,511,577,-73
-256,-392,15731,511,577,-74
-256,-392,15728,511,576,-74
-256,-391,15730,511,577,-74
-256,-393,15725,511,577,-73
-256,-390,15717,511,578,-71
-256,-383,15720,511,579,-71
-256,-377,15719,511,582,-69
-256,-376,15715,511,580,-65
-256,-376,15719,511,579,-65
-256,-378,15973,256,580,-67
-256,-375,15973,256,578,-70
-256,-374,15714,511,579,-72
-256,-375,15713,511,579,-73
-256,-376,15721,511,577,-76
-256,-377,15721,511,575,-79
-256,-382,15726,511,579,-76
-256,-386,15720,511,579,-75
-256,-385,15718,511,579,-75
-256,-387,15713,511,580,-75
-256,-386,15710,511,578,-75
-256,-380,15708,511,579,-73
-256,-377,15708,511,580,-71
-256,-377,15709,511,581,-71
-256,-377,15702,511,582,-75
-256,-380,15704,511,581,-76
-256,-378,15705,511,579,-77
-256,-383,15707,511,580,-76
-256,-386,15709,511,579,-77
-256,-384,15713,511,579,-79
-256,-388,15709,511,580,-82
-256,-392,15705,511,580,-83
-256,-387,15708,511,578,-80
-256,-388,15714,511,574,-80
-256,-391,15720,511,572,-80
-256,-393,15711,511,572,-80
-256,-396,15708,511,572,-80
-256,-392,15710,511,575,-78
-256,-393,15709,511,577,-78
-256,-393,15707,511,577,-76
-256,-392,15706,511,577,-76
-256,-390,15701,511,577,-76
-256,-391,15702,511,576,-75
-256,-393,15702,511,577,-77
-256,-391,15701,511,579,-76
-256,-387,15702,511,580,-74
-256,-387,15704,511,578,-73
-256,-390,15710,511,578,-72
-256,-391,15970,256,579,-72
-256,-398,15718,511,580,-74
-256,-395,15719,511,579,-75
-256,-390,15717,511,576,-74
-256,-385,15716,511,576,-72
-256,-381,15716,511,578,-73
-256,-377,15720,511,579,-76
-256,-376,15718,511,577,-77
-256,-372,15717,511,579,-76
-256,-379,15968,256,579,-75
-256,-386,15708,511,578,-75
-256,-394,15972,256,578,-75
-256,-396,15712,511,578,-74
-256,-395,15718,511,578,-74
-256,-392,15719,511,579,-74
-256,-393,15718,511,579,-74
-256,-397,15724,511,581,-72
-256,-392,15729,511,578,-73
-256,-392,15727,511,575,-73
-256,-394,15982,256,572,-73
-256,-394,15720,511,571,-71
-256,-394,15982,256,571,-71
-256,-399,15727,511,571,-72
-256,-394,15723,511,571,-73
-256,-397,15724,511,571,-74
-256,-394,15723,511,572,-75
-256,-400,15986,256,575,-74
-256,-398,15738,511,575,-75
-256,-400,15740,511,573,-76
-256,-399,15995,256,577,-76
-256,-399,15738,511,577,-78
-256,-401,15994,256,576,-75
-256,-406,16000,256,579,-72
-256,-404,15998,256,577,-71
-256,-399,15995,256,576,-70
-256,-401,15991,256,577,-69
-256,-398,15985,256,577,-66
-256,-402,15986,256,579,-68
-256,-407,15981,256,579,-66
-256,-402,15987,256,578,-66
-256,-405,15735,511,578,-69
-256,-407,15731,511,579,-68
-256,-406,15728,511,579,-70
-256,-403,15730,511,580,-68
-256,-400,15987,256,582,-71
-256,-401,15989,256,580,-74
-256,-402,15988,256,581,-73
-256,-395,15988,256,582,-76
-256,-396,15984,256,581,-74
-256,-396,15731,511,581,-76
-256,-390,15727,511,583,-75
-256,-389,15984,256,583,-71
-256,-387,15980,256,582,-75
-256,-394,15974,256,583,-72
-256,-402,15974,256,583,-67
-256,-400,15974,256,583,-68
-256,-399,15975,256,582,-69
-256,-403,15971,256,581,-68
-256,-406,15968,256,580,-68
-256,-406,15973,256,580,-70
-256,-403,15972,256,580,-71
-256,-396,15966,256,577,-69
-256,-399,15968,256,577,-69
-256,-398,15964,256,578,-70
-256,-399,15967,256,577,-70
-256,-400,15966,256,578,-71
-256,-398,15965,256,579,-70
-256,-401,15960,256,578,-71
-256,-396,15962,256,577,-71
-256,-392,15954,256,576,-71
-256,-389,15953,256,577,-72
-256,-394,15953,256,575,-71
-256,-394,15958,256,573,-71
-256,-392,15960,256,571,-73
-256,-393,15959,256,572,-73
-256,-390,15962,256,571,-74
-256,-392,15968,256,571,-75
-256,-397,15973,256,573,-71
-256,-393,15974,256,573,-72
-256,-398,15979,256,572,-73
-256,-403,15982,256,577,-71
-256,-403,15979,256,577,-70
-256,-405,15975,256,578,-71
-256,-407,15971,256,578,-69
-256,-402,15972,256,578,-71
-256,-406,15978,256,579,-72
-256,-403,15719,511,580,-72
-256,-400,15721,511,579,-70
-256,-400,15977,256,577,-69
-256,-400,15723,511,578,-69
-256,-400,15976,256,580,-71
-256,-400,15983,256,580,-72
-256,-404,15722,511,582,-73
-256,-409,15978,256,580,-76
-256,-408,15720,511,580,-76
-256,-404,15973,256,584,-76
-256,-403,15975,256,583,-80
-256,-396,15717,511,582,-80
-256,-393,15715,511,582,-82
-256,-386,15715,511,581,-83
-256,-383,15975,256,581,-81
-256,-382,15975,256,581,-81
-256,-377,15976,256,581,-78
-256,-378,15978,256,583,-78
-256,-377,15985,256,586,-78
-256,-378,15985,256,583,-79
-256,-379,15983,256,579,-78
-256,-380,15976,256,581,-75
-256,-385,15975,256,579,-77
-256,-378,15974,256,579,-77
-256,-378,15972,256,579,-77
-256,-380,15969,256,583,-75
-256,-383,15967,256,586,-73
-256,-390,15962,256,584,-73
-256,-389,15966,256,580,-71
-256,-388,15711,511,580,-71
-256,-391,15967,256,581,-75
-256,-390,15712,511,583,-80
-256,-393,15969,256,582,-80
-256,-394,15715,511,585,-79
-256,-397,15717,511,585,-78
-256,-391,15717,511,582,-78
-256,-381,15719,511,582,-78
-256,-381,15719,511,580,-78
-256,-377,15721,511,579,-75
-256,-372,15725,511,579,-72
-256,-367,15722,511,580,-71
-256,-368,15722,511,582,-72
-256,-376,15715,511,581,-74
-256,-383,15712,511,581,-73
-256,-387,15714,511,577,-73
-256,-396,15715,511,577,-75
-256,-397,15712,511,577,-74
-256,-397,15715,511,574,-73
-256,-396,15715,511,574,-74
-256,-394,15715,511,574,-75
-256,-391,15715,511,573,-77
-256,-389,15717,511,575,-74
-256,-387,15714,511,578,-74
-256,-381,15712,511,581,-75
-256,-382,15707,511,583,-76
-256,-384,15711,511,584,-78
-256,-383,15706,511,583,-77
-256,-377,15705,511,581,-76
-256,-379,15705,511,581,-76
-256,-384,15712,511,583,-74
-256,-383,15967,256,582,-71
-256,-382,15711,511,580,-70
-256,-388,15710,511,580,-72
-256,-390,15709,511,581,-76
-256,-383,15970,256,582,-75
-256,-374,15973,256,582,-74
-256,-378,15977,256,578,-71
-256,-378,15978,256,576,-74
-256,-379,15978,256,576,-75
-256,-372,15975,256,575,-74
-256,-371,15721,511,574,-74
-256,-373,15723,511,573,-74
-256,-377,15976,256,570,-74
-256,-383,15979,256,569,-75
-256,-387,15980,256,568,-76
-256,-384,15983,256,570,-77
-256,-391,15982,256,574,-78
-256,-389,15977,256,575,-78
-256,-382,15716,511,574,-78
-256,-385,15713,511,575,-77
-256,-383,15711,511,576,-75
-256,-384,15707,511,577,-75
-256,-389,15709,511,580,-75
-256,-394,15713,511,582,-77
-256,-394,15716,511,580,-75
-256,-391,15718,511,582,-71
-256,-387,15713,511,581,-73
-256,-390,15710,511,581,-73
-256,-391,15708,511,581,-71
-256,-385,15704,511,581,-70
-256,-388,15702,511,579,-69
-256,-394,15706,511,577,-69
-256,-393,15710,511,575,-70
-256,-387,15714,511,575,-72
-256,-388,15715,511,576,-72
-256,-390,15716,511,577,-73
-256,-389,15965,256,576,-76
-256,-394,15709,511,575,-76
-256,-395,15962,256,576,-73
-256,-391,15704,511,576,-72
-256,-395,15706,511,575,-72
-256,-400,15705,511,574,-75
-256,-394,15705,511,574,-74
-256,-387,15707,511,576,-74
-256,-383,15714,511,575,-74
-256,-384,15719,511,575,-73
-256,-386,15981,256,577,-71
-256,-383,15985,256,575,-73
-256,-385,15988,256,575,-72
-256,-384,15731,511,580,-74
-256,-383,15732,511,580,-72
-256,-379,15735,511,578,-70
-256,-385,15729,511,578,-67
-256,-393,15730,511,580,-69
-256,-398,15728,511,576,-71
-256,-397,15729,511,576,-70
-256,-394,15726,511,576,-72
-256,-395,15720,511,576,-72
-256,-399,15727,511,574,-73
-256,-400,15726,511,571,-72
-256,-403,15725,511,573,-74
-256,-402,15726,511,573,-77
-256,-401,15982,256,574,-74
-256,-399,15978,256,573,-73
-256,-401,15972,256,572,-74
-256,-405,15972,256,575,-74
-256,-399,15968,256,573,-71
-256,-394,15970,256,572,-69
-256,-392,15976,256,575,-67
-256,-390,15978,256,573,-67
-256,-396,15720,511,572,-65
-256,-395,15973,256,572,-67
-256,-393,15972,256,571,-72
-256,-393,15978,256,572,-73
-256,-396,15986,256,571,-72
-256,-398,15729,511,574,-69
-256,-398,15729,511,575,-69
-256,-400,15727,511,574,-69
-256,-400,15726,511,576,-68
-256,-400,15723,511,576,-69
-256,-397,15725,511,576,-68
-256,-405,15719,511,578,-70
-256,-409,15717,511,578,-70
-256,-406,15712,511,579,-69
-256,-405,15712,511,577,-70
-256,-401,15717,511,577,-69
-256,-405,15712,511,578,-68
-256,-402,15708,511,579,-67
-256,-401,15710,511,578,-67
-256,-406,15971,256,578,-69
-256,-405,15712,511,576,-71
-256,-405,15968,256,575,-72
-256,-412,15969,256,576,-73
-256,-410,15971,256,579,-75
-256,-411,15973,256,580,-74
-256,-411,15970,256,579,-73
-256,-409,15719,511,580,-73
-256,-407,15970,256,580,-73
-256,-403,15707,511,579,-72
-256,-405,15962,256,579,-70
-256,-406,15964,256,579,-70
-256,-406,15973,256,580,-70
-256,-409,15720,511,580,-71
-256,-405,15718,511,580,-75
-256,-399,15981,256,578,-75
-256,-401,15720,511,578,-75
-256,-403,15715,511,578,-74
-256,-410,15718,511,581,-75
-256,-403,15722,511,581,-78
-256,-401,15719,511,581,-78
-256,-401,15716,511,579,-76
-256,-398,15718,511,578,-75
-256,-395,15712,511,580,-76
-256,-397,15707,511,578,-75
-256,-398,15970,256,577,-74
-256,-396,15715,511,577,-74
-256,-396,15711,511,578,-75
-256,-402,15708,511,578,-75
-256,-398,15707,511,578,-75
-256,-407,15711,511,579,-74
-256,-401,15707,511,578,-73
-256,-398,15709,511,578,-69
-256,-398,15713,511,577,-69
-256,-395,15715,511,578,-68
-256,-394,15710,511,578,-69
-256,-387,15713,511,578,-71
-256,-386,15711,511,576,-70
-256,-386,15710,511,575,-67
-256,-386,15712,511,577,-66
-256,-384,15715,511,577,-69
-256,-383,15722,511,578,-69
-256,-385,15720,511,580,-71
-256,-386,15718,511,579,-74
-256,-384,15715,511,579,-75
-256,-384,15717,511,576,-75
-256,-389,15715,511,577,-75
-256,-387,15713,511,579,-73
-256,-384,15711,511,577,-70
-256,-384,15707,511,579,-71
-256,-389,15705,511,580,-71
-256,-393,15701,511,579,-70
-256,-395,15698,511,578,-66
-256,-398,15695,511,576,-65
-256,-402,15702,511,576,-68
-256,-398,15699,511,576,-71
-256,-398,15702,511,575,-73
-256,-400,15709,511,576,-73
-256,-394,15707,511,574,-76
-256,-388,15710,511,574,-77
-256,-388,15710,511,573,-78
-256,-379,15708,511,573,-80
-256,-380,15709,511,576,-80
-256,-384,15710,511,577,-77
-256,-388,15707,511,574,-74
-256,-395,15706,511,575,-74
-256,-399,15709,511,576,-73
-256,-401,15709,511,574,-71
-256,-399,15708,511,574,-72
-256,-393,15707,511,574,-72
-256,-396,15708,511,572,-71
-256,-400,15716,511,573,-71
-256,-398,15977,256,576,-72
-256,-400,15979,256,575,-71
-256,-399,15977,256,575,-72
-256,-397,15973,256,576,-71
-256,-400,15715,511,576,-73
-256,-395,15716,511,573,-71
-256,-394,15716,511,573,-70
-256,-393,15710,511,573,-70
-256,-396,15713,511,574,-71
-256,-401,15719,511,575,-71
-256,-399,15724,511,575,-71
-256,-400,15973,256,576,-70
-256,-402,15721,511,576,-70
-256,-405,15722,511,575,-74
-256,-404,15718,511,574,-76
-256,-401,15971,256,572,-75
-256,-402,15966,256,575,-72
-256,-409,15960,256,575,-73
-256,-405,15962,256,575,-73
-256,-403,15964,256,571,-72
-256,-400,15962,256,570,-71
-256,-394,15967,256,572,-72
-256,-389,15717,511,572,-72
-256,-391,15974,256,572,-71
-256,-391,15717,511,571,-71
-256,-396,15719,511,571,-70
-256,-390,15720,511,574,-72
-256,-388,15722,511,577,-72
-256,-390,15723,511,576,-74
-256,-386,15721,511,574,-75
-256,-384,15726,511,573,-80
-256,-383,15723,511,573,-82
-256,-390,15724,511,573,-80
-256,-393,15720,511,575,-79
-256,-395,15717,511,576,-79
-256,-394,15713,511,574,-76
-256,-392,15709,511,573,-74
-256,-392,15703,511,570,-76
-256,-390,15710,511,571,-75
-256,-392,15968,256,571,-75
-256,-395,15714,511,571,-76
-256,-402,15971,256,573,-76
-256,-410,15719,511,574,-78
-256,-416,15718,511,573,-80
-256,-413,15716,511,572,-81
-256,-411,15725,511,573,-80
-256,-411,15729,511,576,-79
-256,-414,15732,511,575,-80
-256,-416,15727,511,575,-78
-256,-414,15725,511,574,-74
-256,-409,15976,256,574,-74
-256,-409,15975,256,573,-73
-256,-401,15975,256,572,-71
-256,-398,15971,256,574,-70
-256,-398,15975,256,576,-69
-256,-396,15723,511,576,-72
-256,-391,15722,511,577,-71
-256,-389,15718,511,578,-71
-256,-385,15718,511,578,-71
-256,-381,15721,511,580,-71
-256,-378,15722,511,581,-70
-256,-381,15726,511,580,-68
-256,-379,15727,511,583,-67
-256,-378,15724,511,581,-72
-256,-380,15724,511,581,-70
-256,-380,15727,511,581,-67
-256,-379,15726,511,581,-66
-256,-378,15729,511,578,-65
-256,-381,15732,511,578,-65
-256,-381,15739,511,578,-68
-256,-380,15745,511,576,-68
-256,-376,15743,511,575,-68
-256,-379,15745,511,574,-70
-256,-385,15743,511,573,-72
-256,-391,15738,511,573,-70
-256,-389,15736,511,574,-71
-256,-386,15739,511,576,-69
-256,-387,15738,511,574,-73
-256,-389,15731,511,573,-74
-256,-396,15726,511,574,-71
-256,-396,15723,511,574,-70
-256,-395,15717,511,573,-71
-256,-396,15721,511,574,-70
-256,-399,15716,511,577,-70
-256,-402,15721,511,578,-69
-256,-405,15723,511,578,-66
-256,-402,15724,511,579,-69
-256,-404,15730,511,581,-69
-256,-400,15730,511,580,-70
-256,-402,15732,511,580,-73
-256,-400,15730,511,579,-72
-256,-400,15725,511,579,-70
-256,-399,15728,511,579,-67
-256,-398,15725,511,578,-70
-256,-391,15720,511,580,-72
-256,-391,15721,511,581,-70
-256,-392,15717,511,580,-72
-256,-395,15715,511,578,-72
-256,-391,15719,511,576,-70
-256,-387,15712,511,577,-69
-256,-382,15714,511,575,-66
-256,-385,15715,511,573,-65
-256,-389,15716,511,573,-63
-256,-392,15714,511,570,-63
-256,-384,15712,511,570,-63
-256,-390,15708,511,570,-63
-256,-397,15701,511,571,-64
-256,-392,15704,511,572,-67
-256,-392,15706,511,569,-67
-256,-395,15704,511,570,-66
-256,-394,15703,511,571,-65
-256,-393,15696,511,572,-66
-256,-390,15700,511,574,-65
-256,-384,15694,511,576,-65
-256,-380,15696,511,577,-65
-256,-386,15697,511,576,-66
-256,-391,15700,511,576,-70
-256,-392,15705,511,573,-70
-256,-391,15709,511,572,-69
-256,-391,15713,511,572,-70
-256,-385,15713,511,572,-70
-256,-381,15711,511,575,-72
-256,-379,15716,511,577,-72
-256,-379,15717,511,575,-72
-256,-382,15712,511,575,-70
-256,-381,15706,511,575,-71
-256,-379,15710,511,578,-73
-256,-379,15717,511,580,-75
-256,-379,15977,256,578,-73
-256,-381,15977,256,576,-73
-256,-378,15978,256,575,-72
-256,-377,15976,256,576,-73
-256,-381,15719,511,579,-72
-256,-385,15722,511,580,-71
-256,-386,15977,256,579,-74
-256,-386,15982,256,578,-74
-256,-387,15983,256,576,-76
-256,-386,15980,256,577,-78
-256,-379,15977,256,578,-78
-256,-385,15972,256,576,-76
-256,-386,15968,256,575,-74
-256,-382,15971,256,573,-72
-256,-380,15715,511,572,-72
-256,-380,15713,511,574,-73
-256,-379,15710,511,574,-73
-256,-384,15713,511,574,-75
-256,-386,15711,511,577,-77
-256,-384,15707,511,578,-78
-256,-391,15708,511,578,-79
-256,-393,15714,511,578,-78
-256,-395,15714,511,577,-77
-256,-393,15708,511,578,-76
-256,-392,15704,511,578,-76
-256,-393,15703,511,578,-75
-256,-389,15959,256,579,-73
-256,-385,15957,256,579,-74
-256,-382,15962,256,577,-74
-256,-378,15963,256,577,-72
-256,-375,15964,256,581,-68
-256,-377,15965,256,581,-68
-256,-379,15710,511,580,-70
-256,-384,15709,511,578,-72
-256,-384,15709,511,576,-72
-256,-388,15707,511,576,-73
-256,-395,15703,511,577,-73
-256,-391,15701,511,577,-75
-256,-389,15701,511,578,-74
-256,-390,15698,511,576,-74
-256,-386,15692,511,574,-76
-256,-383,15689,511,573,-74
-256,-379,15687,511,573,-74
-256,-380,15684,511,572,-76
-256,-385,15686,511,573,-77
-256,-379,15941,256,575,-76
-256,-373,15687,511,574,-75
-256,-380,15690,511,574,-77
-256,-380,15690,511,574,-76
-256,-383,15693,511,575,-76
-256,-389,15698,511,573,-75
-256,-397,15700,511,573,-74
-256,-391,15703,511,575,-75
-256,-391,15710,511,573,-73
-256,-384,15716,511,572,-73
-256,-384,15721,511,572,-76
-256,-386,15720,511,573,-75
-256,-389,15977,256,575,-74
-256,-389,15971,256,578,-72
-256,-395,15963,256,577,-71
-256,-397,15967,256,577,-69
-256,-396,15974,256,575,-72
-256,-398,15975,256,576,-73
-256,-400,15979,256,576,-70
-256,-403,15982,256,579,-71
-256,-400,15981,256,581,-71
-256,-400,15973,256,578,-71
-256,-402,15974,256,579,-70
-256,-405,15975,256,577,-72
-256,-402,15971,256,575,-73
-256,-400,15716,511,577,-71
-256,-399,15970,256,579,-70
-256,-394,15972,256,576,-73
-256,-394,15968,256,577,-71
-256,-395,15716,511,578,-72
-256,-391,15717,511,579,-73
-256,-394,15972,256,579,-72
-256,-393,15967,256,580,-73
-256,-393,15969,256,581,-74
-256,-395,15717,511,582,-75
-256,-399,15719,511,581,-73
-256,-398,15718,511,579,-75
-256,-395,15721,511,578,-75
-256,-393,15730,511,578,-74
-256,-391,15729,511,578,-72
-256,-391,15734,511,577,-72
-256,-396,15728,511,575,-70
-256,-397,15724,511,577,-69
-256,-391,15724,511,576,-69
-256,-391,15721,511,573,-70
-256,-396,15720,511,575,-73
-256,-395,15719,511,577,-73
-256,-391,15724,511,576,-74
-256,-388,15718,511,575,-75
-256,-390,15720,511,573,-77
-256,-389,15726,511,574,-76
-256,-393,15728,511,576,-75
-256,-389,15733,511,574,-73
-256,-391,15735,511,574,-74
-256,-394,15735,511,576,-75
-256,-399,15729,511,574,-72
-256,-400,15723,511,573,-72
-256,-399,15722,511,576,-73
-256,-399,15722,511,577,-73
-256,-399,15725,511,578,-73
-256,-397,15723,511,579,-73
-256,-398,15724,511,579,-73
-256,-397,15723,511,579,-72
-256,-399,15725,511,579,-73
-256,-396,15722,511,579,-74
-256,-400,15723,511,579,-73
-256,-401,15724,511,579,-72
-256,-403,15725,511,576,-74
-256,-404,15721,511,577,-72
-256,-403,15717,511,580,-70
-256,-402,15711,511,582,-69
-256,-401,15708,511,582,-71
-256,-399,15710,511,580,-76
-256,-401,15706,511,582,-74
-256,-400,15709,511,579,-72
-256,-398,15707,511,575,-70
-256,-399,15705,511,575,-69
-256,-400,15704,511,576,-70
-256,-397,15706,511,578,-72
-256,-395,15708,511,579,-73
-256,-399,15705,511,580,-72
-256,-401,15703,511,580,-71
-256,-401,15703,511,580,-70
-256,-401,15699,511,579,-70
-256,-399,15703,511,577,-72
-256,-401,15703,511,575,-71
-256,-398,15699,511,576,-71
-256,-390,15699,511,577,-71
-256,-387,15697,511,577,-72
-256,-382,15700,511,578,-71
-256,-382,15706,511,578,-71
-256,-384,15706,511,579,-73
-256,-388,15710,511,578,-77
-256,-389,15711,511,578,-75
-256,-386,15718,511,578,-73
-256,-386,15718,511,580,-73
-256,-388,15715,511,577,-75
-256,-389,15717,511,575,-74
-256,-391,15715,511,572,-75
-256,-393,15715,511,574,-74
-256,-396,15714,511,573,-73
-256,-402,15705,511,572,-75
-256,-397,15706,511,572,-77
-256,-401,15713,511,572,-75
-256,-401,15973,256,573,-73
-256,-398,15716,511,574,-71
-256,-399,15718,511,574,-71
-256,-396,15720,511,575,-72
-256,-393,15721,511,574,-76
-256,-397,15721,511,575,-77
-256,-400,15723,511,575,-81
-256,-400,15718,511,573,-81
-256,-399,15718,511,575,-75
-256,-404,15721,511,574,-73
-256,-404,15722,511,575,-73
-256,-399,15725,511,576,-73
-256,-396,15728,511,577,-75
-256,-398,15984,256,576,-73
-256,-395,15720,511,572,-73
-256,-400,15980,256,573,-72
-256,-396,15723,511,576,-73
-256,-395,15717,511,577,-74
-256,-396,15968,256,577,-74
-256,-394,15713,511,578,-75
-256,-397,15968,256,579,-73
-256,-400,15968,256,578,-73
-256,-398,15962,256,577,-71
-256,-400,15967,256,579,-72
-256,-398,15968,256,581,-69
-256,-398,15971,256,583,-67
-256,-393,15970,256,583,-67
-256,-393,15972,256,582,-67
-256,-392,15969,256,580,-68
-256,-389,15963,256,578,-70
-256,-393,15967,256,578,-69
-256,-395,15979,256,579,-70
-256,-399,15987,256,580,-72
-256,-397,15987,256,580,-71
-256,-390,15985,256,579,-70
-256,-390,15986,256,581,-66
-256,-389,15988,256,578,-67
-256,-392,15984,256,577,-67
-256,-397,15985,256,581,-69
-256,-400,15728,511,580,-68
-256,-396,15726,511,577,-70
-256,-396,15720,511,575,-71
-256,-394,15721,511,576,-70
-256,-399,15719,511,577,-71
-256,-395,15718,511,579,-72
-256,-398,15725,511,580,-71
-256,-395,15727,511,583,-74
-256,-397,15724,511,582,-74
-256,-400,15727,511,581,-73
-256,-400,15732,511,581,-75
-256,-405,15727,511,581,-78
-256,-401,15976,256,580,-80
-256,-396,15728,511,580,-78
-256,-395,15984,256,580,-77
-256,-397,15724,511,579,-81
-256,-397,15724,511,578,-80
-256,-398,15721,511,576,-80
-256,-399,15718,511,577,-81
-256,-400,15724,511,578,-81
-256,-402,15725,511,579,-79
-256,-396,15719,511,577,-77
-256,-389,15725,511,577,-73
-256,-390,15724,511,575,-71
-256,-396,15725,511,574,-71
-256,-398,15725,511,573,-72
-256,-395,15722,511,574,-72
-256,-398,15728,511,575,-72
-256,-403,15986,256,577,-71
-256,-403,15992,256,576,-70
-256,-405,15992,256,573,-70
-256,-405,15991,256,573,-69
-256,-409,15732,511,577,-68
-256,-413,15730,511,574,-69
-256,-412,15731,511,575,-70
-256,-410,15726,511,577,-71
-256,-409,15727,511,577,-69
-256,-415,15723,511,581,-69
-256,-411,15725,511,581,-70
-256,-412,15728,511,579,-71
-256,-416,15725,511,580,-73
-256,-417,15725,511,581,-72
-256,-414,15731,511,581,-74
-256,-412,15738,511,583,-72
-256,-416,15738,511,581,-74
-256,-418,15737,511,579,-74
-256,-414,15735,511,581,-73
-256,-410,15736,511,579,-70
-256,-409,15737,511,576,-71
-256,-410,15735,511,576,-73
-256,-408,15730,511,578,-74
-256,-407,15731,511,578,-74
-256,-412,15730,511,576,-76
-256,-416,15730,511,576,-74
-256,-415,15725,511,575,-73
-256,-406,15728,511,574,-73
-256,-403,15718,511,576,-74
-256,-407,15708,511,575,-77
-256,-408,15708,511,575,-74
-256,-405,15710,511,574,-73
-256,-405,15712,511,575,-74
-256,-406,15712,511,576,-77
-256,-402,15713,511,576,-78
-256,-403,15717,511,577,-74
-256,-400,15717,511,576,-74
-256,-394,15716,511,576,-74
-256,-391,15970,256,576,-74
-256,-388,15713,511,576,-76
-256,-385,15972,256,574,-77
-256,-387,15972,256,574,-76
-256,-383,15715,511,575,-76
-256,-390,15714,511,574,-76
-256,-395,15718,511,574,-78
-256,-395,15715,511,572,-77
-256,-396,15715,511,572,-78
-256,-395,15714,511,574,-78
-256,-398,15714,511,572,-79
-256,-398,15718,511,572,-77
-256,-393,15714,511,573,-74
-256,-396,15712,511,575,-75
-256,-396,15715,511,573,-77
-256,-396,15716,511,575,-76
-256,-399,15718,511,577,-74
-256,-401,15730,511,577,-72
-256,-398,15728,511,580,-73
-256,-404,15729,511,580,-74
-256,-405,15732,511,578,-74
-256,-404,15726,511,576,-72
-256,-394,15728,511,577,-71
-256,-398,15723,511,575,-73
-256,-398,15723,511,575,-72
-256,-395,15725,511,574,-68
-256,-399,15723,511,575,-69
-256,-399,15715,511,579,-70
-256,-399,15710,511,580,-70
-256,-401,15711,511,578,-70
-256,-395,15717,511,577,-71
-256,-393,15713,511,578,-72
-256,-390,15712,511,575,-77
-256,-392,15715,511,575,-77
-256,-388,15711,511,576,-75
-256,-390,15711,511,575,-73
-256,-386,15713,511,575,-74
-256,-389,15713,511,576,-74
-256,-389,15711,511,575,-76
-256,-396,15707,511,574,-74
-256,-397,15713,511,572,-74
-256,-396,15714,511,572,-75
-256,-403,15713,511,571,-73
-256,-398,15712,511,571,-73
-256,-391,15712,511,572,-75
-256,-390,15720,511,571,-73
-256,-389,15718,511,572,-72
-256,-394,15720,511,574,-71
-256,-391,15717,511,573,-72
-256,-389,15722,511,574,-73
-256,-393,15972,256,574,-74
-256,-394,15710,511,573,-76
-256,-393,15711,511,573,-73
-256,-387,15714,511,573,-70
-256,-381,15972,256,577,-71
-256,-380,15722,511,579,-73
-256,-385,15978,256,580,-72
-256,-389,15978,256,578,-72
-256,-391,15975,256,576,-76
-256,-398,15974,256,577,-79
-256,-398,15970,256,576,-81
-256,-399,15966,256,577,-80
-256,-396,15963,256,578,-79
-256,-395,15707,511,576,-79
-256,-390,15709,511,576,-79
-256,-387,15704,511,578,-78
-256,-389,15702,511,578,-78
-256,-387,15706,511,577,-79
-256,-383,15710,511,576,-79
-256,-390,15707,511,576,-78
-256,-391,15713,511,575,-80
-256,-392,15708,511,571,-79
-256,-388,15714,511,571,-77
-256,-391,15711,511,572,-77
-256,-388,15706,511,574,-77
-256,-388,15709,511,574,-77
-256,-386,15712,511,574,-77
-256,-396,15712,511,575,-74
-256,-395,15716,511,577,-73
-256,-398,15717,511,580,-73
-256,-400,15718,511,582,-72
-256,-400,15715,511,582,-71
-256,-402,15715,511,583,-69
-256,-404,15711,511,583,-66
-256,-403,15711,511,582,-68
-256,-401,15706,511,579,-69
-256,-398,15708,511,580,-68
-256,-395,15710,511,579,-71
-256,-382,15712,511,577,-68
-256,-381,15709,511,577,-68
-256,-381,15712,511,579,-68
-256,-377,15719,511,581,-68
-256,-381,15719,511,580,-69
-256,-380,15717,511,581,-71
-256,-387,15717,511,581,-71
-256,-389,15713,511,580,-73
-256,-395,15712,511,579,-73
-256,-401,15709,511,581,-73
-256,-401,15715,511,582,-72
-256,-400,15721,511,582,-71
-256,-392,15721,511,582,-73
-256,-386,15719,511,581,-73
-256,-384,15719,511,582,-72
-256,-382,15718,511,580,-75
-256,-382,15721,511,578,-73
-256,-386,15715,511,575,-72
-256,-388,15718,511,573,-72
-256,-390,15719,511,572,-73
-256,-386,15716,511,574,-73
-256,-387,15721,511,575,-77
-256,-388,15723,511,575,-77
-256,-393,15720,511,575,-79
-256,-395,15722,511,576,-79
-256,-392,15725,511,574,-78
-256,-396,15724,511,574,-79
-256,-400,15727,511,575,-80
-256,-400,15728,511,578,-80
-256,-391,15731,511,576,-79
-256,-390,15728,511,574,-76
-256,-397,15981,256,572,-77
-256,-396,15719,511,572,-79
-256,-400,15721,511,574,-78
-256,-397,15720,511,574,-77
-256,-398,15719,511,572,-76
-256,-404,15717,511,573,-75
-256,-400,15722,511,574,-78
-256,-409,15724,511,572,-76
-256,-412,15726,511,571,-73
-256,-414,15727,511,571,-70
-256,-409,15733,511,571,-70
-256,-407,15981,256,572,-72
-256,-402,15975,256,574,-72
-256,-413,15714,511,574,-73
-256,-415,15716,511,571,-71
-256,-413,15980,256,571,-67
-256,-402,15976,256,574,-69
-256,-398,15977,256,574,-71
-256,-400,15716,511,574,-74
-256,-405,15711,511,574,-76
-256,-406,15713,511,574,-77
-256,-408,15978,256,575,-78
-256,-403,15722,511,574,-75
-256,-401,15722,511,574,-75
-256,-398,15718,511,572,-77
-256,-397,15718,511,574,-74
-256,-398,15719,511,577,-72
-256,-396,15715,511,575,-73
-256,-396,15717,511,573,-76
-256,-396,15720,511,572,-75
-256,-399,15722,511,570,-77
-256,-402,15723,511,572,-78
-256,-405,15721,511,574,-76
-256,-405,15720,511,572,-76
-256,-406,15720,511,573,-75
-256,-402,15721,511,573,-74
-256,-398,15721,511,567,-76
-256,-399,15722,511,569,-75
-256,-394,15729,511,570,-71
-256,-398,15725,511,570,-73
-256,-398,15726,511,572,-74
-256,-407,15727,511,576,-71
-256,-404,15728,511,577,-68
-256,-403,15727,511,578,-71
-256,-396,15726,511,579,-72
-256,-405,15726,511,577,-72
-256,-403,15728,511,574,-73
-256,-399,15726,511,576,-73
-256,-399,15726,511,578,-74
-256,-401,15725,511,576,-73
-256,-398,15728,511,575,-75
-256,-396,15725,511,572,-75
-256,-392,15723,511,574,-73
-256,-395,15721,511,575,-70
-256,-394,15720,511,575,-73
-256,-394,15717,511,575,-75
-256,-396,15717,511,575,-77
-256,-391,15719,511,574,-78
-256,-393,15714,511,574,-79
-256,-396,15713,511,575,-77
-256,-398,15713,511,577,-79
-256,-392,15705,511,579,-79
-256,-398,15708,511,577,-79
-256,-399,15707,511,577,-78
-256,-401,15709,511,578,-77
-256,-396,15709,511,575,-77
-256,-394,15711,511,573,-74
-256,-388,15965,256,570,-73
-256,-387,15969,256,569,-74
-256,-385,15975,256,568,-73
-256,-390,15974,256,567,-74
-256,-389,15971,256,568,-76
-256,-386,15969,256,572,-75
-256,-379,15967,256,576,-75
-256,-386,15963,256,579,-75
-256,-381,15960,256,578,-76
-256,-382,15960,256,578,-71
-256,-379,15956,256,576,-71
-256,-385,15960,256,577,-72
-256,-385,15962,256,580,-72
-256,-389,15960,256,582,-71
-256,-389,15962,256,581,-72
-256,-395,15965,256,578,-75
-256,-392,15965,256,578,-76
-256,-398,15969,256,579,-72
-256,-392,15708,511,578,-75
-256,-393,15968,256,578,-72
-256,-397,15712,511,580,-72
-256,-396,15714,511,579,-71
-256,-395,15715,511,579,-67
-256,-395,15708,511,579,-67
-256,-399,15708,511,579,-66
-256,-399,15703,511,579,-68
-256,-401,15702,511,579,-68
-256,-402,15706,511,576,-70
-256,-402,15709,511,574,-69
-256,-406,15713,511,576,-68
-256,-398,15711,511,578,-68
-256,-397,15711,511,580,-68
-256,-399,15963,256,581,-68
-256,-395,15711,511,582,-69
-256,-398,15968,256,584,-69
-256,-395,15707,511,584,-71
-256,-397,15969,256,582,-72
-256,-398,15713,511,580,-76
-256,-393,15712,511,580,-76
-256,-396,15971,256,580,-72
-256,-388,15975,256,579,-73
-256,-388,15975,256,580,-70
-256,-386,15973,256,580,-71
-256,-388,15720,511,580,-73
-256,-390,15981,256,582,-77
-256,-393,15726,511,583,-76
-256,-396,15729,511,584,-75
-256,-388,15731,511,582,-75
-256,-388,15732,511,582,-72
-256,-397,15727,511,582,-72
-256,-392,15726,511,582,-72
-256,-394,15722,511,582,-73
-256,-402,15720,511,581,-77
-256,-406,15720,511,580,-79
-256,-411,15718,511,582,-79
-256,-411,15710,511,581,-81
-256,-409,15709,511,581,-80
-256,-408,15704,511,581,-80
-256,-405,15707,511,578,-80
-256,-405,15962,256,577,-80
-256,-394,15705,511,576,-76
-256,-393,15963,256,577,-77
-256,-399,15960,256,575,-80
-256,-401,15963,256,575,-80
-256,-396,15969,256,577,-78
-256,-393,15969,256,578,-78
-256,-392,15975,256,580,-76
-256,-395,15972,256,580,-79
-256,-393,15966,256,582,-77
-256,-393,15967,256,581,-78
-256,-394,15967,256,582,-79
-256,-396,15967,256,579,-79
-256,-391,15714,511,578,-80
-256,-390,15712,511,579,-78
-256,-389,15714,511,578,-78
-256,-384,15710,511,576,-77
-256,-388,15965,256,577,-76
-256,-399,15959,256,577,-77
-256,-403,15700,511,579,-76
-256,-402,15698,511,581,-76
-256,-396,15702,511,582,-75
-256,-393,15713,511,581,-74
-256,-391,15711,511,579,-71
-256,-392,15713,511,578,-68
-256,-391,15714,511,578,-66
-256,-391,15714,511,577,-67
-256,-386,15716,511,577,-68
-256,-392,15717,511,579,-69
-256,-399,15975,256,581,-69
-256,-399,15978,256,580,-70
-256,-397,15723,511,579,-71
-256,-392,15978,256,578,-74
-256,-390,15976,256,576,-76
-256,-395,15978,256,577,-76
-256,-392,15982,256,580,-76
-256,-396,15987,256,578,-76
-256,-401,15983,256,577,-74
-256,-403,15983,256,577,-76
-256,-403,15985,256,577,-75
-256,-399,15985,256,575,-73
-256,-393,15980,256,573,-72
-256,-395,15981,256,576,-72
-256,-398,15980,256,578,-73
-256,-400,15981,256,578,-75
-256,-398,15726,511,578,-76
-256,-395,15722,511,576,-77
-256,-399,15723,511,573,-80
-256,-394,15982,256,572,-79
-256,-389,15988,256,575,-77
-256,-390,15984,256,577,-77
-256,-397,15984,256,575,-77
-256,-395,15983,256,574,-76
-256,-392,15980,256,573,-79
-256,-392,15979,256,573,-79
-256,-393,15979,256,570,-78
-256,-398,15976,256,569,-75
-256,-401,15977,256,567,-76
-256,-397,15979,256,568,-74
-256,-400,15720,511,568,-75
-256,-399,15723,511,572,-74
-256,-397,15726,511,573,-73
-256,-399,15729,511,574,-72
-256,-400,15984,256,577,-72
-256,-392,15978,256,579,-69
-256,-392,15975,256,579,-67
-256,-391,15980,256,580,-68
-256,-391,15979,256,580,-70
-256,-390,15976,256,579,-69
-256,-392,15717,511,578,-71
-256,-390,15715,511,577,-71
-256,-392,15712,511,578,-70
-256,-393,15709,511,579,-70
-256,-385,15704,511,579,-72
-256,-383,15710,511,579,-74
-256,-383,15711,511,581,-70
-256,-386,15719,511,579,-69
-256,-379,15720,511,577,-70
-256,-389,15721,511,579,-70
-256,-393,15980,256,578,-73
-256,-394,15726,511,578,-72
-256,-397,15730,511,579,-71
-256,-398,15731,511,580,-69
-256,-396,15726,511,581,-69
-256,-402,15724,511,581,-69
-256,-401,15726,511,581,-68
-256,-402,15717,511,580,-65
-256,-404,15713,511,578,-66
-256,-405,15714,511,576,-69
-256,-403,15976,256,578,-69
-256,-405,15716,511,578,-69
-256,-401,15714,511,578,-71
-256,-401,15713,511,578,-71
-256,-401,15719,511,576,-71
-256,-397,15716,511,576,-71
-256,-394,15716,511,576,-71
-256,-396,15717,511,574,-73
-256,-396,15714,511,574,-76
-256,-397,15721,511,574,-72
-256,-395,15720,511,573,-72
-256,-397,15714,511,573,-74
-256,-404,15708,511,574,-75
-256,-403,15710,511,574,-74
-256,-401,15713,511,574,-75
-256,-406,15715,511,575,-76
-256,-416,15719,511,575,-76
-256,-415,15716,511,574,-78
-256,-413,15718,511,574,-79
-256,-410,15721,511,576,-77
-256,-409,15978,256,577,-75
-256,-409,15976,256,577,-76
-256,-406,15979,256,577,-76
-256,-406,15978,256,579,-76
-256,-405,15982,256,578,-76
-256,-404,15981,256,576,-73
-256,-406,15983,256,576,-72
-256,-411,15984,256,577,-73
-256,-409,15978,256,579,-74
-256,-410,15970,256,582,-75
-256,-409,15714,511,582,-75
-256,-409,15714,511,583,-74
-256,-406,15712,511,582,-73
-256,-405,15720,511,581,-72
-256,-402,15722,511,581,-73
-256,-395,15717,511,580,-76
-256,-396,15721,511,580,-77
-256,-397,15728,511,578,-77
-256,-400,15727,511,580,-74
-256,-399,15724,511,579,-72
-256,-391,15726,511,579,-73
-256,-390,15727,511,578,-73
-256,-389,15726,511,576,-72
-256,-385,15722,511,578,-70
-256,-382,15730,511,576,-71
-256,-383,15730,511,576,-72
-256,-383,15728,511,580,-77
-256,-389,15719,511,583,-76
-256,-385,15722,511,579,-74
-256,-387,15720,511,578,-73
-256,-395,15721,511,579,-74
-256,-395,15721,511,579,-71
-256,-397,15718,511,576,-71
-256,-394,15714,511,575,-70
-256,-397,15714,511,575,-72
-256,-402,15715,511,574,-73
-256,-401,15710,511,576,-72
-256,-400,15701,511,582,-74
-256,-399,15699,511,579,-75
-256,-399,15701,511,578,-75
-256,-406,15701,511,575,-75
-256,-390,15702,511,572,-77
-256,-390,15708,511,570,-78
-256,-391,15711,511,569,-80
-256,-393,15709,511,571,-77
-256,-393,15706,511,572,-79
-256,-395,15710,511,574,-80
-256,-389,15969,256,578,-80
-256,-393,15712,511,577,-79
-256,-397,15719,511,581,-77
-256,-399,15719,511,580,-75
-256,-398,15714,511,581,-78
-256,-399,15719,511,580,-78
-256,-397,15720,511,581,-77
-256,-397,15720,511,583,-73
-256,-399,15723,511,582,-72
-256,-401,15726,511,583,-72
-256,-403,15984,256,581,-70
-256,-406,15987,256,581,-70
-256,-408,15988,256,582,-72
-256,-409,15984,256,582,-72
-256,-407,15986,256,585,-72
-256,-405,15981,256,587,-73
-256,-401,15980,256,586,-72
-256,-399,15982,256,585,-72
-256,-402,15979,256,582,-72
-256,-403,15978,256,579,-72
-256,-403,15977,256,580,-69
-256,-405,15713,511,582,-70
-256,-406,15713,511,583,-70
-256,-402,15715,511,581,-71
-256,-404,15713,511,581,-71
-256,-402,15722,511,582,-72
-256,-400,15727,511,582,-75
-256,-393,15729,511,583,-78
-256,-393,15730,511,582,-76
-256,-396,15724,511,582,-75
-256,-395,15717,511,582,-76
-256,-391,15721,511,582,-78
-256,-393,15723,511,583,-78
-256,-392,15722,511,583,-79
-256,-391,15714,511,581,-78
-256,-396,15713,511,580,-79
-256,-402,15716,511,579,-78
-256,-405,15720,511,579,-77
-256,-400,15723,511,577,-75
-256,-402,15718,511,577,-76
-256,-404,15716,511,577,-76
-256,-408,15716,511,577,-78
-256,-407,15711,511,577,-80
-256,-405,15706,511,576,-82
-256,-405,15964,256,575,-80
-256,-398,15961,256,574,-76
-256,-400,15704,511,571,-76
-256,-402,15959,256,569,-73
-256,-398,15704,511,571,-70
-256,-396,15705,511,572,-72
-256,-393,15704,511,573,-71
-256,-391,15964,256,574,-69
-256,-386,15711,511,571,-71
-256,-392,15967,256,574,-71
-256,-395,15965,256,577,-70
-256,-391,15705,511,575,-70
-256,-396,15966,256,575,-70
-256,-399,15704,511,576,-72
-256,-399,15705,511,576,-74
-256,-394,15709,511,580,-75
-256,-391,15712,511,581,-77
-256,-390,15712,511,579,-78
-256,-390,15711,511,576,-79
-256,-394,15709,511,579,-81
-256,-395,15708,511,578,-82
-256,-398,15706,511,578,-82
-256,-402,15707,511,580,-81
-256,-403,15706,511,580,-79
-256,-405,15711,511,579,-81
-256,-411,15711,511,577,-81
-256,-414,15710,511,577,-79
-256,-413,15714,511,576,-80
-256,-414,15716,511,575,-79
-256,-407,15713,511,576,-77
-256,-409,15716,511,576,-77
-256,-415,15719,511,575,-78
-256,-414,15720,511,576,-77
-256,-412,15723,511,576,-75
-256,-409,15717,511,579,-74
-256,-411,15719,511,575,-75
-256,-405,15720,511,574,-75
-256,-398,15722,511,575,-74
-256,-395,15726,511,575,-72
-256,-395,15729,511,574,-70
-256,-395,15730,511,576,-69
-256,-400,15733,511,575,-71
-256,-401,15732,511,576,-73
-256,-404,15728,511,578,-70
-256,-402,15728,511,574,-72
-256,-400,15726,511,573,-73
-256,-403,15728,511,571,-70
-256,-401,15726,511,568,-73
-256,-403,15728,511,568,-74
-256,-404,15735,511,569,-73
-256,-396,15733,511,570,-74
-256,-401,15735,511,573,-72
-256,-403,15733,511,574,-73
-256,-402,15733,511,572,-73
-256,-397,15732,511,575,-75
-256,-402,15732,511,576,-76
-256,-407,15731,511,573,-76
-256,-403,15732,511,573,-75
-256,-397,15724,511,575,-73
-256,-392,15725,511,573,-72
-256,-393,15727,511,570,-73
-256,-394,15720,511,572,-72
-256,-392,15711,511,574,-74
-256,-392,15713,511,572,-72
-256,-392,15713,511,571,-73
-256,-394,15712,511,573,-78
-256,-398,15711,511,574,-78
-256,-408,15710,511,576,-80
-256,-407,15708,511,576,-80
-256,-408,15711,511,575,-79
-256,-406,15712,511,576,-79
-256,-402,15714,511,577,-78
-256,-399,15713,511,579,-80
-256,-401,15718,511,579,-80
-256,-396,15721,511,578,-79
-256,-394,15722,511,577,-76
-256,-400,15721,511,577,-76
-256,-404,15722,511,577,-75
-256,-403,15727,511,576,-75
-256,-402,15726,511,576,-72
-256,-405,15725,511,573,-70
-256,-406,15717,511,572,-70
-256,-401,15712,511,573,-68
-256,-398,15715,511,576,-67
-256,-394,15714,511,577,-66
-256,-396,15714,511,577,-65
-256,-391,15707,511,577,-65
-256,-390,15712,511,576,-65
-256,-391,15717,511,574,-64
-256,-395,15719,511,574,-66
-256,-396,15721,511,575,-66
-256,-390,15725,511,575,-68
-256,-391,15723,511,578,-67
-256,-389,15719,511,575,-65
-256,-389,15714,511,575,-65
-256,-392,15717,511,576,-64
-256,-397,15717,511,577,-63
-256,-406,15710,511,580,-61
-256,-408,15705,511,581,-65
-256,-409,15707,511,581,-67
-256,-407,15701,511,580,-65
-256,-398,15701,511,580,-64
-256,-396,15696,511,580,-64
-256,-395,15703,511,578,-65
-256,-398,15705,511,576,-64
-256,-396,15702,511,576,-64
-256,-399,15705,511,578,-68
-256,-402,15704,511,578,-68
-256,-395,15706,511,578,-67
-256,-390,15701,511,578,-66
-256,-388,15702,511,578,-66
-256,-386,15707,511,579,-67
-256,-389,15703,511,581,-67
-256,-394,15707,511,580,-67
-256,-400,15709,511,580,-68
-256,-399,15717,511,578,-69
-256,-396,15722,511,576,-71
-256,-391,15719,511,576,-69
-256,-389,15717,511,577,-71
-256,-385,15716,511,578,-70
-256,-384,15713,511,578,-68
-256,-384,15711,511,580,-68
-256,-390,15711,511,581,-66
-256,-386,15712,511,581,-62
-256,-389,15713,511,581,-65
-256,-386,15708,511,579,-67
-256,-386,15709,511,581,-68
-256,-393,15703,511,582,-66
-256,-393,15704,511,582,-68
-256,-390,15704,511,582,-69
-256,-391,15708,511,580,-69
-256,-392,15698,511,582,-67
-256,-401,15698,511,581,-67
-256,-405,15697,511,579,-69
-256,-403,15700,511,581,-69
-256,-398,15706,511,582,-71
-256,-391,15705,511,579,-73
-256,-389,15705,511,579,-71
-256,-391,15708,511,579,-72
-256,-388,15710,511,578,-74
-256,-383,15715,511,578,-74
-256,-383,15715,511,578,-73
-256,-385,15714,511,579,-70
-256,-390,15716,511,577,-71
-256,-393,15972,256,579,-71
-256,-392,15976,256,576,-74
-256,-389,15986,256,577,-74
-256,-388,15988,256,578,-71
-256,-389,15982,256,577,-68
-256,-391,15984,256,577,-70
-256,-392,15981,256,577,-70
-256,-385,15975,256,578,-70
-256,-387,15974,256,578,-74
-256,-385,15973,256,578,-77
-256,-386,15972,256,577,-77
-256,-393,15971,256,580,-75
-256,-395,15709,511,581,-75
-256,-397,15973,256,580,-74
-256,-396,15983,256,577,-74
-256,-395,15991,256,576,-74
-256,-395,15987,256,576,-73
-256,-399,15986,256,575,-72
-256,-399,15983,256,575,-73
-256,-395,15978,256,577,-73
-256,-393,15980,256,576,-72
-256,-390,15981,256,576,-70
-256,-390,15979,256,579,-73
-256,-392,15976,256,579,-74
-256,-395,15720,511,577,-75
-256,-393,15977,256,579,-74
-256,-392,15716,511,582,-74
-256,-391,15976,256,581,-73
-256,-394,15719,511,582,-72
-256,-400,15716,511,583,-77
-256,-398,15719,511,581,-76
-256,-402,15720,511,581,-76
-256,-408,15717,511,582,-75
-256,-405,15716,511,579,-74
-256,-400,15716,511,577,-75
-256,-397,15712,511,577,-74
-256,-399,15710,511,579,-74
-256,-405,15968,256,581,-71
-256,-401,15968,256,580,-74
-256,-398,15971,256,579,-74
-256,-397,15973,256,578,-73
-256,-392,15974,256,577,-71
-256,-387,15978,256,575,-73
-256,-385,15982,256,575,-73
-256,-388,15730,511,575,-70
-256,-393,15732,511,573,-72
-256,-390,15734,511,571,-74
-256,-394,15734,511,573,-75
-256,-388,15733,511,573,-77
-256,-389,15734,511,573,-79
-256,-386,15736,511,575,-80
-256,-389,15735,511,579,-80
-256,-394,15735,511,580,-80
-256,-395,15729,511,581,-78
-256,-395,15729,511,578,-78
-256,-391,15728,511,579,-79
-256,-387,15722,511,579,-77
-256,-395,15720,511,578,-73
-256,-393,15720,511,579,-71
-256,-391,15722,511,579,-66
-256,-396,15720,511,578,-66
-256,-393,15716,511,579,-66
-256,-394,15710,511,579,-66
-256,-395,15707,511,578,-66
-256,-399,15707,511,575,-66
-256,-396,15706,511,573,-67
-256,-394,15714,511,573,-69
-256,-393,15720,511,574,-71
-256,-400,15725,511,573,-72
-256,-403,15721,511,573,-73
-256,-399,15718,511,572,-73
-256,-396,15720,511,572,-74
-256,-393,15722,511,575,-74
-256,-397,15724,511,575,-74
-256,-398,15721,511,574,-74
-256,-399,15722,511,574,-76
-256,-398,15723,511,575,-75
-256,-392,15715,511,575,-77
-256,-386,15711,511,573,-78
-256,-387,15970,256,574,-79
-256,-392,15973,256,574,-80
-256,-394,15978,256,574,-85
-256,-397,15970,256,576,-85
-256,-396,15712,511,577,-84
-256,-389,15715,511,580,-82
-256,-387,15713,511,583,-79
-256,-387,15965,256,580,-81
-256,-386,15706,511,579,-80
-256,-392,15962,256,578,-75
-256,-387,15705,511,580,-75
-256,-387,15957,256,583,-75
-256,-383,15700,511,583,-72
-256,-375,15701,511,581,-74
-256,-378,15710,511,579,-77
-256,-386,15709,511,577,-76
-256,-388,15715,511,577,-76
-256,-390,15706,511,576,-76
-256,-390,15706,511,574,-76
-256,-391,15706,511,573,-76
-256,-392,15700,511,572,-77
-256,-397,15702,511,573,-76
-256,-394,15706,511,571,-78
-256,-392,15710,511,572,-81
-256,-391,15712,511,573,-77
-256,-386,15712,511,573,-77
-256,-385,15716,511,576,-75
-256,-387,15717,511,579,-72
-256,-397,15716,511,579,-73
-256,-394,15712,511,580,-74
-256,-395,15717,511,579,-75
-256,-394,15711,511,581,-73
-256,-402,15717,511,580,-72
-256,-400,15718,511,580,-72
-256,-402,15718,511,578,-75
-256,-401,15970,256,577,-73
-256,-401,15968,256,577,-74
-256,-399,15968,256,576,-76
-256,-393,15968,256,576,-75
-256,-396,15962,256,577,-78
-256,-397,15966,256,579,-78
-256,-401,15965,256,580,-74
-256,-401,15974,256,579,-76
-256,-404,15968,256,578,-77
-256,-400,15707,511,576,-78
-256,-402,15964,256,574,-76
-256,-400,15969,256,577,-76
-256,-401,15720,511,578,-77
-256,-399,15719,511,576,-76
-256,-395,15721,511,576,-74
-256,-397,15972,256,578,-75
-256,-398,15711,511,579,-75
-256,-402,15702,511,580,-75
-256,-401,15699,511,583,-73
-256,-404,15701,511,583,-74
-256,-406,15701,511,583,-70
-256,-413,15703,511,584,-70
-256,-414,15703,511,581,-68
-256,-413,15712,511,579,-66
-256,-409,15714,511,580,-69
-256,-403,15716,511,578,-69
-256,-396,15717,511,577,-70
-256,-395,15718,511,579,-66
-256,-400,15715,511,578,-68
-256,-395,15715,511,577,-71
-256,-392,15713,511,575,-73
-256,-390,15716,511,572,-78
-256,-394,15717,511,572,-78
-256,-386,15713,511,572,-77
-256,-385,15715,511,570,-78
-256,-387,15713,511,570,-79
-256,-387,15708,511,575,-80
-256,-387,15708,511,575,-80
-256,-375,15707,511,575,-82
-256,-372,15710,511,574,-82
-256,-373,15713,511,577,-82
-256,-367,15714,511,577,-82
-256,-372,15713,511,578,-79
-256,-381,15710,511,577,-80
-256,-381,15709,511,576,-77
-256,-383,15713,511,575,-77
-256,-383,15716,511,573,-78
-256,-390,15710,511,573,-78
-256,-387,15711,511,573,-74
-256,-391,15714,511,577,-74
-256,-385,15715,511,576,-75
-256,-385,15716,511,576,-77
-256,-389,15722,511,577,-76
-256,-391,15723,511,578,-75
-256,-390,15976,256,579,-76
-256,-389,15716,511,580,-78
-256,-391,15720,511,578,-74
-256,-394,15722,511,576,-76
-256,-403,15722,511,575,-79
-256,-402,15720,511,576,-78
-256,-398,15717,511,576,-74
-256,-396,15720,511,574,-71
-256,-392,15718,511,575,-70
-256,-398,15717,511,576,-70
-256,-398,15714,511,578,-70
-256,-395,15713,511,578,-69
-256,-393,15708,511,578,-70
-256,-388,15713,511,576,-73
-256,-383,15719,511,574,-76
-256,-380,15718,511,574,-74
-256,-378,15716,511,574,-69
-256,-386,15712,511,575,-66
-256,-386,15717,511,574,-69
-256,-391,15966,256,573,-69
-256,-399,15973,256,574,-69
-256,-395,15974,256,573,-70
-256,-393,15969,256,573,-71
-256,-392,15973,256,571,-73
-256,-392,15973,256,572,-71
-256,-391,15968,256,573,-70
-256,-380,15965,256,574,-68
-256,-382,15708,511,572,-68
-256,-389,15707,511,571,-69
-256,-391,15711,511,574,-67
-256,-385,15970,256,574,-65
-256,-384,15977,256,577,-65
-256,-378,15720,511,577,-66
-256,-376,15714,511,577,-66
-256,-384,15708,511,579,-65
-256,-383,15960,256,579,-67
-256,-378,15708,511,580,-69
-256,-382,15713,511,582,-70
-256,-385,15709,511,583,-72
-256,-392,15712,511,583,-71
-256,-396,15708,511,584,-69
-256,-396,15714,511,583,-69
-256,-394,15717,511,584,-68
-256,-394,15720,511,581,-70
-256,-391,15721,511,578,-70
-256,-387,15719,511,576,-69
-256,-384,15718,511,574,-70
-256,-382,15719,511,576,-72
-256,-391,15720,511,575,-73
-256,-390,15718,511,573,-72
-256,-395,15717,511,573,-71
-256,-392,15720,511,572,-69
-256,-392,15717,511,573,-69
-256,-394,15723,511,573,-70
-256,-404,15725,511,572,-72
-256,-405,15719,511,571,-70
-256,-404,15716,511,571,-72
-256,-412,15714,511,573,-71
-256,-410,15706,511,573,-69
-256,-410,15711,511,572,-69
-256,-406,15709,511,576,-70
-256,-398,15715,511,574,-70
-256,-398,15717,511,575,-70
-256,-401,15717,511,577,-71
-256,-399,15714,511,577,-74
-256,-395,15714,511,576,-72
-256,-388,15717,511,577,-72
-256,-388,15712,511,575,-75
-256,-388,15977,256,575,-74
-256,-390,15727,511,575,-76
-256,-384,15723,511,574,-77
-256,-384,15715,511,573,-75
-256,-380,15711,511,576,-76
-256,-384,15720,511,577,-74
-256,-386,15727,511,574,-73
-256,-391,15723,511,575,-72
-256,-395,15723,511,577,-71
-256,-394,15716,511,578,-69
-256,-395,15975,256,580,-69
-256,-392,15979,256,581,-68
-256,-390,15983,256,581,-69
-256,-391,15986,256,581,-68
-256,-393,15983,256,581,-67
-256,-389,15981,256,580,-66
-256,-385,15981,256,580,-70
-256,-385,15721,511,580,-72
-256,-383,15719,511,579,-72
-256,-385,15714,511,579,-72
-256,-386,15710,511,579,-71
-256,-393,15714,511,577,-72
-256,-399,15714,511,576,-74
-256,-402,15715,511,577,-71
-256,-401,15719,511,575,-72
-256,-396,15721,511,575,-72
-256,-395,15725,511,574,-72
-256,-393,15724,511,574,-71
-256,-393,15726,511,574,-73
-256,-398,15728,511,573,-73
-256,-396,15729,511,571,-75
-256,-397,15736,511,569,-78
-256,-394,15737,511,574,-77
-256,-390,15733,511,577,-76
-256,-389,15732,511,578,-76
-256,-390,15732,511,577,-74
-256,-391,15730,511,576,-72
-256,-391,15731,511,575,-71
-256,-394,15728,511,574,-71
-256,-392,15721,511,575,-71
-256,-391,15720,511,575,-68
-256,-388,15718,511,575,-67
-256,-389,15718,511,575,-68
-256,-391,15717,511,576,-70
-256,-393,15713,511,578,-70
-256,-397,15966,256,577,-73
-256,-400,15705,511,574,-74
-256,-402,15707,511,577,-72
-256,-396,15708,511,576,-72
-256,-396,15712,511,574,-72
-256,-397,15719,511,576,-73
-256,-399,15724,511,577,-73
-256,-399,15721,511,576,-73
-256,-402,15722,511,576,-74
-256,-403,15725,511,574,-75
-256,-405,15726,511,574,-74
-256,-400,15732,511,578,-70
-256,-403,15734,511,579,-68
-256,-400,15736,511,581,-69
-256,-405,15731,511,582,-72
-256,-403,15722,511,584,-74
-256,-401,15721,511,583,-75
-256,-401,15718,511,585,-73
-256,-403,15721,511,584,-70
-256,-406,15718,511,582,-72
-256,-408,15717,511,581,-74
-256,-410,15724,511,581,-70
-256,-411,15729,511,579,-71
-256,-407,15731,511,578,-73
-256,-402,15726,511,574,-75
-256,-398,15720,511,573,-74
-256,-394,15721,511,574,-72
-256,-394,15723,511,573,-71
-256,-394,15722,511,576,-71
-256,-394,15721,511,575,-70
-256,-403,15719,511,575,-74
-256,-398,15716,511,575,-76
-256,-399,15711,511,576,-75
-256,-395,15708,511,574,-75
-256,-397,15709,511,577,-76
-256,-399,15713,511,577,-76
-256,-391,15710,511,577,-73
-256,-390,15714,511,579,-70
-256,-394,15718,511,578,-72
-256,-392,15713,511,578,-73
-256,-390,15714,511,576,-75
-256,-389,15718,511,577,-74
-256,-393,15717,511,580,-76
-256,-396,15723,511,581,-72
-256,-394,15725,511,582,-71
-256,-398,15725,511,581,-72
-256,-399,15723,511,583,-71
-256,-397,15982,256,585,-72
-256,-396,15981,256,583,-72
-256,-400,15979,256,583,-70
-256,-399,15982,256,585,-70
-256,-391,15979,256,581,-71
-256,-392,15723,511,580,-68
-256,-394,15724,511,579,-65
-256,-399,15725,511,580,-66
-256,-395,15728,511,579,-67
-256,-397,15727,511,577,-71
-256,-398,15728,511,576,-75
-256,-396,15984,256,577,-75
-256,-390,15978,256,576,-73
-256,-391,15972,256,575,-75
-256,-395,15970,256,575,-76
-256,-393,15967,256,575,-74
-256,-393,15974,256,576,-74
-256,-394,15977,256,576,-76
-256,-398,15978,256,577,-75
-256,-395,15981,256,575,-72
-256,-391,15979,256,576,-74
-256,-385,15975,256,575,-75
-256,-386,15973,256,576,-76
-256,-386,15968,256,578,-77
-256,-381,15717,511,577,-78
-256,-383,15719,511,578,-78
-256,-386,15720,511,579,-76
-256,-382,15718,511,577,-72
-256,-387,15717,511,578,-72
-256,-388,15720,511,576,-71
-256,-385,15723,511,577,-72
-256,-389,15719,511,574,-71
-256,-388,15715,511,573,-73
-256,-386,15717,511,571,-75
-256,-392,15721,511,571,-75
-256,-386,15985,256,571,-75
-256,-387,15992,256,571,-74
-256,-388,15736,511,569,-74
-256,-384,15733,511,571,-76
-256,-380,15735,511,573,-78
-256,-382,15736,511,572,-79
-256,-382,15735,511,571,-78
-256,-382,15728,511,569,-78
-256,-383,15730,511,569,-76
-256,-385,15990,256,569,-76
-256,-389,15990,256,572,-76
-256,-391,15983,256,575,-74
-256,-395,15987,256,575,-74
-256,-390,15989,256,577,-74
-256,-395,15986,256,576,-72
-256,-393,15983,256,576,-71
-256,-391,15981,256,576,-71
-256,-394,15980,256,578,-69
-256,-396,15723,511,579,-69
-256,-400,15723,511,579,-70
-256,-400,15725,511,580,-72
-256,-398,15719,511,580,-73
-256,-394,15975,256,583,-73
-256,-393,15973,256,582,-75
-256,-390,15717,511,579,-75
-256,-388,15715,511,579,-75
-256,-390,15713,511,581,-77
-256,-392,15711,511,578,-78
-256,-395,15718,511,578,-76
-256,-400,15727,511,579,-73
-256,-400,15982,256,580,-74
-256,-397,15726,511,580,-75
-256,-393,15729,511,578,-76
-256,-392,15730,511,578,-76
-256,-391,15732,511,579,-75
-256,-390,15726,511,578,-73
-256,-388,15727,511,580,-72
-256,-394,15733,511,582,-72
-256,-397,15730,511,581,-73
-256,-393,15723,511,580,-74
-256,-387,15721,511,578,-73
-256,-388,15716,511,578,-71
-256,-385,15713,511,578,-71
-256,-376,15711,511,579,-70
-256,-380,15706,511,580,-71
-256,-377,15710,511,580,-71
-256,-375,15709,511,579,-68
-256,-376,15964,256,580,-70
-256,-374,15710,511,581,-70
-256,-377,15968,256,583,-71
-256,-384,15705,511,584,-71
-256,-387,15708,511,583,-69
-256,-386,15706,511,584,-71
-256,-384,15706,511,584,-72
-256,-388,15707,511,583,-72
-256,-391,15713,511,584,-71
-256,-390,15719,511,584,-73
-256,-394,15719,511,583,-75
-256,-394,15722,511,580,-76
-256,-399,15721,511,578,-76
-256,-395,15722,511,579,-77
-256,-390,15720,511,580,-78
-256,-390,15720,511,579,-78
-256,-386,15719,511,578,-79
-256,-391,15721,511,580,-77
-256,-393,15717,511,581,-79
-256,-392,15716,511,581,-79
-256,-391,15722,511,580,-78
-256,-390,15714,511,580,-75
-256,-382,15711,511,580,-74
-256,-384,15710,511,581,-73
-256,-388,15711,511,581,-74
-256,-392,15713,511,578,-74
-256,-390,15709,511,577,-73
-256,-391,15710,511,576,-73
-256,-391,15717,511,577,-70
-256,-392,15717,511,579,-70
-256,-399,15720,511,579,-71
-256,-404,15715,511,577,-72
-256,-402,15715,511,579,-74
-256,-405,15713,511,576,-77
-256,-407,15715,511,574,-77
-256,-408,15716,511,575,-75
-256,-408,15716,511,577,-75
-256,-404,15715,511,579,-75
-256,-401,15716,511,581,-70
-256,-401,15719,511,581,-70
-256,-407,15721,511,578,-73
-256,-408,15722,511,577,-74
-256,-410,15724,511,575,-74
-256,-409,15728,511,576,-74
-256,-408,15729,511,575,-73
-256,-413,15726,511,574,-71
-256,-409,15721,511,573,-74
-256,-403,15720,511,570,-76
-256,-400,15975,256,570,-78
-256,-403,15980,256,575,-78
-256,-397,15978,256,577,-78
-256,-394,15981,256,575,-76
-256,-399,15978,256,575,-76
-256,-402,15971,256,575,-76
-256,-396,15967,256,574,-73
-256,-393,15968,256,575,-71
-256,-400,15973,256,576,-72
-256,-404,15969,256,576,-73
-256,-403,15718,511,577,-72
-256,-399,15721,511,577,-73
-256,-395,15724,511,576,-73
-256,-396,15721,511,573,-71
-256,-395,15717,511,573,-71
-256,-393,15707,511,574,-68
-256,-389,15712,511,577,-67
-256,-392,15705,511,580,-63
-256,-396,15703,511,581,-64
-256,-397,15705,511,580,-66
-256,-400,15709,511,580,-68
-256,-398,15709,511,581,-69
-256,-395,15708,511,581,-69
-256,-391,15713,511,581,-70
-256,-392,15715,511,581,-70
-256,-389,15718,511,582,-71
-256,-387,15714,511,583,-72
-256,-394,15714,511,583,-71
-256,-395,15713,511,581,-69
-256,-399,15717,511,581,-71
-256,-399,15722,511,580,-70
-256,-390,15718,511,578,-72
-256,-395,15718,511,577,-73
-256,-399,15713,511,582,-72
-256,-399,15714,511,582,-73
-256,-402,15715,511,581,-72
-256,-404,15715,511,580,-72
-256,-403,15719,511,580,-74
-256,-407,15717,511,581,-73
-256,-410,15973,256,580,-73
-256,-409,15974,256,578,-74
-256,-407,15969,256,578,-76
-256,-407,15969,256,578,-77
-256,-405,15970,256,578,-76
-256,-408,15972,256,580,-76
-256,-402,15974,256,578,-78
-256,-399,15969,256,578,-74
-256,-397,15713,511,577,-73
-256,-399,15715,511,575,-75
-256,-400,15711,511,575,-75
-256,-403,15710,511,573,-77
-256,-403,15713,511,573,-79
-256,-400,15718,511,575,-77
-256,-400,15717,511,576,-77
-256,-396,15972,256,578,-75
-256,-392,15707,511,577,-75
-256,-385,15705,511,576,-75
-256,-386,15706,511,574,-75
-256,-392,15708,511,575,-74
-256,-386,15710,511,576,-72
-256,-384,15710,511,577,-73
-256,-393,15712,511,577,-72
-256,-398,15706,511,577,-74
-256,-399,15708,511,576,-77
-256,-399,15709,511,572,-79
-256,-393,15704,511,573,-80
-256,-392,15707,511,575,-80
-256,-389,15707,511,576,-79
-256,-383,15704,511,577,-81
-256,-385,15705,511,579,-80
-256,-384,15709,511,579,-78
-256,-386,15710,511,577,-76
-256,-388,15707,511,576,-72
-256,-387,15704,511,575,-72
-256,-389,15703,511,575,-74
-256,-389,15708,511,577,-77
-256,-383,15709,511,578,-80
-256,-391,15704,511,578,-83
-256,-393,15705,511,579,-81
-256,-384,15710,511,581,-79
-256,-390,15715,511,580,-81
-256,-396,15716,511,579,-80
-256,-401,15719,511,579,-79
-256,-402,15718,511,578,-80
-256,-394,15712,511,579,-81
-256,-401,15711,511,580,-79
-256,-397,15707,511,582,-79
-256,-394,15701,511,582,-80
-256,-396,15695,511,582,-77
-256,-397,15695,511,578,-75
-256,-391,15952,256,576,-73
-256,-386,15694,511,576,-74
-256,-387,15700,511,577,-77
-256,-392,15705,511,579,-76
-256,-393,15705,511,579,-74
-256,-395,15708,511,575,-73
-256,-395,15714,511,575,-74
-256,-396,15717,511,576,-75
-256,-398,15724,511,575,-75
-256,-394,15724,511,576,-74
-256,-393,15728,511,576,-72
-256,-392,15724,511,577,-72
-256,-392,15720,511,575,-72
-256,-396,15718,511,574,-73
-256,-393,15718,511,575,-72
-256,-395,15718,511,576,-73
-256,-393,15718,511,578,-74
-256,-399,15719,511,577,-75
-256,-396,15723,511,577,-75
-256,-398,15720,511,575,-75
-256,-402,15718,511,576,-76
-256,-404,15716,511,574,-76
-256,-406,15713,511,573,-75
-256,-404,15710,511,575,-75
-256,-398,15711,511,574,-73
-256,-396,15969,256,576,-72
-256,-391,15717,511,574,-74
-256,-386,15973,256,573,-72
-256,-376,15709,511,574,-69
-256,-375,15710,511,574,-72
-256,-371,15706,511,574,-70
-256,-371,15703,511,575,-71
-256,-371,15958,256,574,-74
-256,-372,15708,511,574,-74
-256,-374,15962,256,574,-75
-256,-371,15711,511,574,-76
-256,-366,15969,256,573,-75
-256,-369,15964,256,572,-72
-256,-370,15962,256,575,-70
-256,-369,15963,256,578,-73
-256,-374,15711,511,575,-74
-256,-375,15970,256,575,-69
-256,-377,15713,511,572,-69
-256,-378,15711,511,572,-70
-256,-381,15711,511,572,-69
-256,-376,15710,511,570,-70
-256,-378,15716,511,571,-68
-256,-383,15722,511,571,-68
-256,-382,15722,511,573,-70
-256,-384,15724,511,574,-69
-256,-382,15720,511,574,-69
-256,-384,15722,511,572,-68
-256,-377,15722,511,572,-68
-256,-377,15715,511,575,-71
-256,-381,15712,511,575,-70
-256,-383,15713,511,576,-70
-256,-384,15975,256,577,-70
-256,-384,15719,511,579,-70
-256,-385,15715,511,578,-69
-256,-390,15715,511,578,-70
-256,-390,15716,511,578,-69
-256,-391,15977,256,578,-71
-256,-389,15978,256,578,-71
-256,-388,15723,511,575,-70
-256,-389,15724,511,573,-69
-256,-392,15720,511,574,-68
-256,-392,15722,511,575,-68
-256,-392,15726,511,577,-70
-256,-394,15730,511,577,-70
-256,-398,15728,511,578,-69
-256,-402,15732,511,576,-70
-256,-401,15734,511,578,-70
-256,-402,15730,511,580,-68
-256,-401,15725,511,579,-68
-256,-405,15724,511,579,-67
-256,-401,15727,511,578,-69
-256,-397,15726,511,579,-67
-256,-403,15727,511,582,-66
-256,-407,15723,511,582,-66
-256,-409,15726,511,582,-66
-256,-402,15722,511,584,-69
-256,-396,15725,511,583,-71
-256,-396,15726,511,582,-72
-256,-397,15725,511,583,-72
-256,-399,15724,511,583,-72
-256,-392,15726,511,583,-72
-256,-392,15727,511,583,-72
-256,-393,15728,511,579,-75
-256,-396,15728,511,579,-72
-256,-398,15729,511,581,-73
-256,-396,15732,511,580,-76
-256,-397,15731,511,579,-76
-256,-402,15729,511,578,-75
-256,-404,15737,511,579,-74
-256,-408,15731,511,577,-77
-256,-402,15726,511,578,-76
-256,-405,15723,511,579,-75
-256,-402,15728,511,580,-74
-256,-403,15729,511,578,-72
-256,-403,15726,511,578,-70
-256,-398,15719,511,578,-74
-256,-399,15722,511,575,-75
-256,-400,15720,511,576,-75
-256,-404,15721,511,575,-73
-256,-410,15715,511,576,-75
-256,-407,15709,511,575,-77
-256,-404,15705,511,574,-75
-256,-403,15967,256,576,-75
-256,-395,15715,511,577,-74
-256,-397,15715,511,576,-74
-256,-402,15715,511,575,-72
-256,-407,15717,511,577,-70
-256,-403,15715,511,579,-68
-256,-402,15715,511,580,-68
-256,-402,15714,511,584,-66
-256,-403,15719,511,582,-65
-256,-404,15718,511,581,-65
-256,-405,15716,511,582,-66
-256,-401,15717,511,580,-68
-256,-399,15714,511,580,-70
-256,-396,15717,511,582,-72
-256,-397,15716,511,582,-75
-256,-396,15710,511,582,-76
-256,-398,15706,511,582,-75
-256,-402,15700,511,582,-77
-256,-409,15707,511,580,-78
-256,-411,15716,511,579,-77
-256,-410,15723,511,581,-77
-256,-410,15723,511,580,-79
-256,-408,15724,511,579,-79
-256,-405,15722,511,580,-78
-256,-406,15719,511,578,-76
-256,-406,15711,511,578,-76
-256,-407,15963,256,578,-78
-256,-409,15969,256,576,-79
-256,-409,15970,256,575,-78
-256,-410,15965,256,574,-78
-256,-407,15969,256,574,-80
-256,-404,15969,256,574,-80
-256,-404,15710,511,575,-77
-256,-400,15709,511,572,-75
-256,-398,15706,511,572,-77
-256,-399,15707,511,572,-74
-256,-401,15701,511,573,-71
-256,-399,15960,256,574,-73
-256,-398,15960,256,577,-74
-256,-398,15957,256,578,-74
-256,-393,15957,256,578,-72
-256,-393,15707,511,577,-67
-256,-399,15961,256,576,-65
-256,-401,15961,256,577,-66
-256,-400,15954,256,577,-69
-256,-397,15960,256,576,-69
-256,-395,15959,256,574,-73
-256,-398,15957,256,573,-76
-256,-397,15704,511,574,-75
-256,-392,15704,511,576,-74
-256,-392,15709,511,575,-76
-256,-393,15970,256,575,-76
-256,-391,15967,256,578,-75
-256,-390,15711,511,579,-76
-256,-391,15967,256,578,-73
-256,-395,15963,256,577,-71
-256,-390,15705,511,575,-72
-256,-387,15706,511,573,-73
-256,-391,15710,511,574,-71
-256,-392,15709,511,572,-71
-256,-395,15711,511,571,-74
-256,-397,15711,511,575,-74
-256,-398,15713,511,575,-74
-256,-397,15715,511,575,-74
-256,-388,15716,511,574,-70
-256,-386,15715,511,576,-67
-256,-388,15716,511,577,-67
-256,-389,15716,511,578,-70
-256,-390,15718,511,577,-70
-256,-385,15717,511,575,-70
-256,-382,15714,511,575,-71
-256,-390,15712,511,574,-70
-256,-387,15707,511,575,-70
-256,-390,15708,511,577,-68
-256,-389,15713,511,579,-69
-256,-391,15715,511,580,-69
-256,-390,15715,511,578,-71
-256,-392,15710,511,576,-74
-256,-392,15712,511,574,-78
-256,-393,15717,511,575,-80
-256,-390,15970,256,577,-79
-256,-389,15974,256,578,-81
-256,-396,15979,256,578,-79
-256,-402,15979,256,579,-77
-256,-405,15726,511,577,-77
-256,-397,15726,511,577,-76
-256,-398,15988,256,578,-78
-256,-400,15987,256,577,-79
-256,-402,15988,256,577,-78
-256,-407,15983,256,577,-78
-256,-406,15984,256,577,-77
-256,-400,15972,256,579,-76
-256,-402,15979,256,579,-75
-256,-402,15979,256,577,-73
-256,-403,15977,256,577,-72
-256,-401,15971,256,578,-70
-256,-400,15970,256,582,-72
-256,-405,15968,256,584,-73
-256,-408,15963,256,582,-70
-256,-405,15957,256,583,-68
-256,-407,15953,256,586,-70
-256,-405,15956,256,585,-71
-256,-403,15703,511,581,-70
-256,-407,15700,511,580,-72
-256,-403,15699,511,579,-73
-256,-401,15702,511,579,-72
-256,-400,15704,511,579,-69
-256,-397,15705,511,580,-69
-256,-396,15704,511,578,-73
-256,-396,15706,511,578,-75
-256,-393,15709,511,580,-74
-256,-394,15711,511,579,-73
-256,-393,15709,511,580,-72
-256,-395,15706,511,578,-74
-256,-402,15707,511,577,-73
-256,-400,15711,511,577,-72
-256,-401,15711,511,579,-72
-256,-401,15706,511,578,-72
-256,-405,15707,511,579,-72
-256,-409,15709,511,578,-72
-256,-409,15709,511,579,-73
-256,-410,15707,511,578,-71
-256,-415,15706,511,579,-70
-256,-421,15706,511,580,-71
-256,-425,15713,511,582,-73
-256,-419,15716,511,580,-74
-256,-412,15722,511,579,-74
-256,-414,15721,511,579,-75
-256,-418,15721,511,579,-76
-256,-419,15721,511,580,-72
-256,-416,15984,256,579,-71
-256,-417,15731,511,578,-73
-256,-420,15726,511,579,-71
-256,-414,15722,511,580,-73
-256,-416,15717,511,582,-73
-256,-415,15717,511,582,-73
-256,-417,15720,511,577,-74
-256,-417,15721,511,577,-74
-256,-416,15721,511,579,-75
-256,-412,15977,256,576,-76
-256,-410,15977,256,575,-74
-256,-413,15719,511,575,-76
-256,-411,15719,511,577,-76
-256,-407,15973,256,577,-76
-256,-405,15982,256,576,-77
-256,-404,15982,256,575,-76
-256,-399,15989,256,573,-76
-256,-399,15992,256,573,-79
-256,-393,15992,256,577,-79
-256,-394,15990,256,575,-77
-256,-396,15983,256,574,-78
-256,-395,15977,256,578,-80
-256,-393,15977,256,577,-78
-256,-392,15978,256,576,-79
-256,-392,15976,256,577,-80
-256,-389,15718,511,579,-80
-256,-392,15972,256,579,-81
-256,-399,15971,256,580,-77
-256,-398,15964,256,579,-77
-256,-390,15959,256,580,-76
-256,-389,15968,256,583,-77
-256,-390,15966,256,582,-76
-256,-390,15963,256,581,-74
-256,-381,15964,256,578,-73
-256,-377,15965,256,577,-73
-256,-379,15959,256,577,-72
-256,-377,15955,256,579,-70
-256,-380,15957,256,577,-71
-256,-384,15958,256,577,-74
-256,-386,15961,256,578,-73
-256,-391,15959,256,580,-70
-256,-395,15962,256,579,-68
-256,-398,15961,256,578,-71
-256,-395,15707,511,580,-72
-256,-394,15711,511,579,-71
-256,-391,15715,511,579,-71
-256,-383,15709,511,579,-69
-256,-381,15712,511,579,-67
-256,-381,15719,511,582,-67
-256,-383,15718,511,581,-67
-256,-386,15717,511,580,-69
-256,-393,15713,511,580,-72
-256,-399,15709,511,579,-72
-256,-394,15712,511,581,-69
-256,-396,15711,511,584,-71
-256,-398,15715,511,586,-73
-256,-403,15720,511,584,-74
-256,-409,15727,511,581,-76
-256,-407,15728,511,581,-77
-256,-407,15724,511,581,-76
-256,-404,15724,511,581,-78
-256,-401,15724,511,580,-80
-256,-398,15727,511,579,-80
-256,-397,15723,511,579,-78
-256,-397,15721,511,578,-78
-256,-399,15720,511,580,-77
-256,-397,15719,511,582,-76
-256,-402,15718,511,583,-76
-256,-402,15716,511,582,-76
-256,-398,15715,511,581,-76
-256,-394,15715,511,579,-75
-256,-397,15971,256,578,-76
-256,-394,15716,511,577,-76
-256,-392,15716,511,577,-74
-256,-390,15711,511,577,-73
-256,-386,15713,511,577,-74
-256,-389,15714,511,577,-75
-256,-390,15716,511,577,-75
-256,-388,15714,511,575,-75
-256,-400,15714,511,576,-76
-256,-397,15713,511,575,-77
-256,-393,15717,511,577,-75
-256,-390,15722,511,578,-76
-256,-385,15718,511,578,-77
-256,-385,15719,511,579,-77
-256,-383,15716,511,577,-76
-256,-392,15714,511,576,-75
-256,-394,15715,511,578,-74
-256,-394,15717,511,580,-73
-256,-392,15980,256,577,-75
-256,-390,15720,511,576,-77
-256,-389,15972,256,574,-78
-256,-392,15970,256,572,-76
-256,-388,15972,256,572,-76
-256,-387,15976,256,574,-73
-256,-386,15980,256,576,-71
-256,-386,15978,256,577,-72
-256,-386,15988,256,577,-71
-256,-392,15990,256,581,-69
-256,-394,15981,256,583,-72
-256,-392,15725,511,583,-69
-256,-392,15722,511,583,-70
-256,-395,15717,511,583,-71
-256,-397,15711,511,583,-72
-256,-397,15716,511,582,-72
-256,-394,15718,511,582,-72
-256,-396,15713,511,580,-71
-256,-389,15711,511,581,-72
-256,-387,15715,511,583,-72
-256,-394,15719,511,581,-74
-256,-399,15714,511,578,-75
-256,-398,15711,511,582,-74
-256,-393,15715,511,581,-74
-256,-386,15718,511,579,-77
-256,-386,15717,511,579,-76
-256,-388,15715,511,580,-75
-256,-385,15713,511,581,-74
-256,-384,15710,511,580,-74
-256,-384,15707,511,579,-76
-256,-382,15707,511,581,-74
-256,-381,15709,511,577,-73
-256,-379,15706,511,578,-74
-256,-383,15702,511,578,-74
-256,-383,15711,511,580,-75
-256,-384,15717,511,581,-75
-256,-380,15728,511,583,-73
-256,-381,15732,511,583,-72
-256,-385,15731,511,583,-72
-256,-389,15724,511,583,-74
-256,-385,15722,511,583,-75
-256,-388,15724,511,584,-76
-256,-391,15728,511,582,-75
-256,-393,15727,511,581,-74
-256,-396,15724,511,581,-73
-256,-397,15719,511,580,-72
-256,-394,15722,511,578,-74
-256,-398,15725,511,576,-73
-256,-397,15728,511,576,-73
-256,-395,15730,511,573,-73
-256,-392,15734,511,573,-74
-256,-394,15736,511,574,-75
-256,-396,15730,511,573,-75
-256,-394,15727,511,574,-77
