Ax,Ay,Az,Gx,Gy,Gz
0,-608,15864,255,758,-98
0,-352,15640,255,1194,-494
0,-384,15936,256,732,-476
255,-360,15680,511,818,-410
255,-368,15656,511,650,-466
0,-360,15632,511,294,-392
255,-368,15656,255,982,-330
255,-624,16120,256,374,-64
255,-256,3968,511,866,426
0,-232,3928,511,112,140
0,-248,3968,255,1008,188
0,-248,3952,256,594,-146
-1,-16,4032,256,970,-158
0,-232,3960,256,530,164
255,-232,3984,0,980,-222
0,-240,3992,256,816,-216
0,-216,3960,256,870,28
255,-224,3984,256,778,-424
0,-232,3976,255,954,202
0,-200,3968,511,552,-658
255,-200,3984,256,358,-8
0,-200,3976,0,470,108
255,-208,3968,256,682,234
0,-208,3960,256,624,-88
255,-208,3976,256,694,510
0,-216,3952,256,694,308
255,-224,3952,256,2,110
0,-208,3968,256,1276,-72
0,-216,3928,256,590,-472
255,-216,3976,256,850,-494
0,-256,3984,511,344,-20
0,-168,7704,511,562,-732
255,-160,8016,0,924,-264
0,-456,7912,511,610,70
255,-424,7912,511,1006,348
255,-168,7712,511,580,-630
255,-160,7696,511,1148,-488
-1,-16,7696,255,686,124
0,-208,7736,511,156,146
255,-152,7976,256,578,-16
255,-152,7968,256,588,-378
255,-208,7720,511,576,-732
255,-152,7688,255,702,-316
0,-184,7704,511,618,-278
0,-168,7936,0,954,-732
255,-200,7696,255,938,-674
0,-200,7736,511,644,-284
255,-184,7680,511,660,-268
0,-200,7704,511,860,-508
0,-168,7688,511,402,-110
255,-160,7976,256,776,122
0,-192,7976,256,834,-382
255,-192,7960,0,722,-34
0,-392,12016,255,700,-502
0,-392,11952,256,918,-216
0,-472,11904,256,800,-420
255,-440,11848,511,794,-342
0,-376,11896,256,616,-204
0,-408,11896,511,832,-390
0,-384,11944,511,540,110
0,-376,11952,256,286,374
255,-352,11904,256,854,94
255,-416,11952,255,742,-22
0,-360,11952,511,658,-336
255,-88,11776,0,482,-346
255,-392,11992,511,1222,-336
255,-432,11992,256,450,-524
255,-352,11952,255,880,-288
0,-408,11912,512,836,-492
255,-408,11968,256,532,22
0,-432,11672,511,1212,54
0,-368,11928,0,468,-74
255,-416,11912,511,1004,-406
255,-376,11952,255,1012,-442
255,-416,11920,511,310,-186
255,-384,11888,0,710,-22
255,-368,11912,256,510,-164
0,-416,11920,256,888,-324
255,-416,11832,256,874,-400
255,-376,11960,0,490,-390
255,-400,11888,256,874,-296
255,-424,12000,255,940,20
0,-416,11952,511,708,566
0,-472,11856,255,902,732
255,-424,11880,255,430,22
255,-360,11920,511,792,-162
255,-272,11976,256,614,-26
255,-352,11928,256,30,-302
0,-400,11936,256,542,-322
255,-464,15680,511,798,-564
0,-600,16080,256,608,-602
255,-584,16088,256,340,-324
255,-368,15648,255,736,-274
255,-384,15912,256,610,-356
0,-416,15744,511,800,-232
255,-440,15920,256,806,150
255,-352,15688,255,456,474
0,-408,15616,511,898,4
0,-304,15656,511,630,218
0,-384,15920,256,572,-108
0,-328,15928,256,612,-98
0,-424,15696,511,282,-326
0,-336,15688,511,588,-596
0,-432,15672,511,782,-510
255,-280,15896,256,538,-90
255,-416,15696,511,886,222
255,-320,15984,0,410,16
255,-320,15736,511,330,-72
255,-440,15888,256,1178,-182
511,-488,15960,256,328,-132
255,-440,15976,256,860,-212
0,-376,15712,255,396,-302
255,-424,15672,511,1160,-250
0,-336,15688,511,614,-754
255,-608,15832,255,414,-536
255,-416,15648,511,1176,-570
255,-304,15728,255,438,-460
255,-328,15640,511,1146,18
255,-336,15616,511,278,18
255,-304,15880,256,642,316
0,-336,15656,511,912,-238
255,-344,15704,511,946,-242
255,-320,15656,255,500,-128
255,-312,15640,511,928,-422
255,-328,15720,255,436,-82
0,-528,15824,511,998,-554
255,-256,3984,255,974,-408
255,-240,4016,511,342,202
255,-208,3992,511,782,-716
255,-224,3952,256,588,-540
255,-224,3976,511,892,-406
255,-184,3984,511,272,244
0,-208,3992,511,744,90
255,-232,3952,255,714,-60
255,-216,3968,511,938,-252
0,-208,3984,511,872,-392
255,-216,3992,256,1014,-468
255,-248,3936,255,414,-288
0,-224,3984,256,1096,-646
255,-224,3976,255,440,-512
255,-216,4024,511,1144,96
0,-224,3976,256,58,198
255,-216,3992,0,868,-80
255,-240,3992,256,564,-132
0,-216,3976,511,688,-324
255,-240,3984,255,666,-258
255,-232,4016,256,604,-144
0,-224,3992,255,434,-434
0,-240,3960,0,980,-486
0,-216,3976,511,892,-352
255,-192,3984,511,544,-688
255,-200,3952,256,878,-420
0,-208,3944,256,570,-190
255,-232,3984,256,642,266
0,-248,3968,511,630,106
255,-216,3984,0,684,30
0,-240,3952,256,1162,-242
255,-208,4008,511,512,-452
255,-224,3992,0,502,-272
0,-240,3960,256,1090,-18
0,-224,3984,511,-150,-292
0,-200,4000,255,1232,-350
255,-216,4008,256,354,202
0,-168,7936,256,600,468
0,-440,8160,256,864,74
255,-248,7712,511,928,-142
255,-152,7936,0,756,32
0,-152,7720,255,474,196
255,-216,7736,255,678,-240
255,-144,7960,256,814,-162
255,-160,7968,0,740,-242
0,-168,7728,511,800,-316
255,-448,7928,511,288,-442
0,-192,7728,511,388,-330
0,-216,7712,255,732,-414
255,-112,7680,511,534,-84
0,-152,7728,511,994,54
255,-152,7976,256,284,470
0,-184,7976,256,842,198
255,-144,7704,511,622,-224
0,-152,7688,511,534,-334
0,-224,7688,511,648,-300
0,-160,7720,511,294,-346
0,-472,7920,511,948,-298
0,-408,7920,511,280,-156
0,-464,7928,511,944,-14
0,-120,8032,0,504,-532
255,-232,7944,256,1052,-452
0,-192,7704,511,64,-84
255,-424,7920,511,328,196
255,-184,7688,511,604,-120
255,-192,8016,256,644,-210
255,-168,7992,256,774,224
0,-224,7696,767,318,-130
255,-432,7912,511,822,58
0,-200,7688,511,618,-114
0,-144,7704,255,756,-284
0,-184,7704,511,412,-208
0,-224,7712,511,1212,186
255,-200,7680,511,78,474
0,-392,11928,0,1138,72
255,-424,11936,256,780,60
0,-376,11976,0,232,196
255,-392,11992,511,846,390
0,-392,11888,256,576,-150
255,-448,11976,0,1210,-212
0,-376,11904,255,184,-446
255,-352,11880,256,840,-456
0,-368,11960,0,748,-530
255,-392,11912,256,602,-960
255,-448,11968,0,1136,-494
0,-456,11944,511,380,228
0,-448,11920,511,612,478
0,-440,11984,511,524,114
0,-440,11992,511,656,-376
0,-416,11928,256,256,-50
0,-328,11896,256,780,-314
255,-368,11688,511,364,-424
255,-352,11960,511,626,-332
0,-352,11984,256,566,-348
255,-384,11960,256,752,162
255,-392,11968,511,816,-498
255,-392,11928,511,272,-16
0,-464,11936,256,1060,-160
255,-368,11984,256,396,414
255,-392,11872,0,730,286
255,-328,11712,511,988,58
255,-344,11880,256,1130,120
0,-392,11856,0,510,-228
255,-360,11968,256,928,-250
0,-448,12024,511,662,-414
255,-384,11944,256,852,-452
255,-440,11976,511,786,-382
0,-376,11920,511,402,172
0,-376,11976,256,986,58
255,-328,11984,511,586,16
0,-416,11880,256,610,-256
255,-408,11896,511,802,-360
255,-424,15976,256,588,-376
255,-360,15648,511,938,-256
0,-384,15632,511,644,-36
0,-424,15664,511,538,-28
0,-352,15696,255,1010,-186
255,-408,15944,256,320,-82
255,-424,15880,0,708,-588
255,-344,15664,511,800,-284
255,-368,15696,255,762,96
255,-424,15704,511,668,138
255,-368,15640,511,836,108
0,-520,15856,256,872,-228
255,-608,15800,511,836,-128
255,-320,15888,256,534,-368
0,-384,15944,256,624,-444
255,-448,15712,511,558,-312
0,-608,15824,255,980,-708
255,-592,15848,511,282,-272
255,-384,15936,256,856,-138
255,-384,15944,256,554,0
255,-648,16120,256,774,-254
0,-320,15664,511,838,70
0,-328,15936,256,342,208
255,-408,15648,255,482,384
255,-360,15976,256,1100,56
255,-280,15656,255,494,-64
255,-408,15768,511,686,-174
255,-320,15640,511,1186,-490
255,-424,15960,0,478,-300
0,-400,15720,255,986,-952
255,-624,16088,256,418,-526
255,-344,15928,256,522,-108
255,-336,15624,255,1010,198
0,-312,15696,255,486,-144
255,-312,15680,511,638,-152
0,-304,15624,511,694,-300
255,-352,15632,511,598,-276
255,-344,15880,256,1136,-368
255,-240,3984,511,40,-664
255,-232,3992,511,1058,-444
0,-240,3992,511,870,-274
255,-224,3992,255,652,-310
0,-224,3968,511,484,-312
0,-224,3960,256,1070,-238
0,-208,4008,511,702,382
0,-216,3984,256,326,344
255,-248,3968,511,790,368
0,-224,4024,256,288,406
0,-208,4000,511,918,-246
255,-240,3984,256,618,-78
0,-208,4000,256,1108,-100
0,-192,3984,255,508,-734
255,-208,3976,511,664,-262
0,-208,3984,256,910,226
0,-216,3992,511,118,440
0,-216,3960,255,974,322
0,-216,3976,256,618,50
0,-216,3976,256,628,-48
255,-200,3976,511,986,-430
255,-192,3968,511,526,-12
255,-216,4008,0,954,-152
255,-208,3976,256,746,-426
255,-256,3976,511,774,-416
255,-224,3960,0,452,-388
0,-232,4008,256,544,-726
255,-200,4008,256,978,-392
0,-200,3976,511,794,274
0,-176,3984,0,716,570
0,-216,3968,511,462,300
255,-248,3968,256,904,208
0,-232,4016,511,540,98
0,-224,3984,512,534,-302
255,-208,3968,511,732,-92
0,-248,3960,255,950,-466
255,-240,3976,256,458,-734
255,-184,3960,511,1154,-174
0,-208,3992,511,304,-170
255,-216,7720,511,846,174
0,-432,8176,256,878,186
255,-184,7976,256,556,184
0,-128,7712,255,1012,376
255,-136,8008,256,350,188
0,-176,7992,256,670,-164
0,-464,8120,256,580,-54
0,-200,7728,511,674,-2
0,-224,7688,511,786,-202
0,-200,8000,256,582,-336
0,-432,7912,255,766,-460
0,-208,7960,256,886,-224
0,-184,7976,256,342,182
0,-232,7744,511,518,418
255,-408,8168,256,816,66
255,-480,7904,511,358,-14
255,-152,7704,511,866,-292
255,-168,7968,512,542,-496
0,-184,7984,0,950,-24
0,-456,7912,767,576,-390
0,-168,7936,256,1026,-498
0,-464,7928,511,586,-42
0,-216,7688,255,1018,-304
255,-176,7936,512,786,-472
255,-232,7736,511,882,-210
0,-184,7696,255,490,102
255,-168,7704,511,664,332
0,-136,7704,255,702,248
0,-200,7680,511,688,-72
0,-456,8160,0,490,-114
0,-232,7744,511,632,-404
0,-184,7944,256,790,-452
0,-216,7960,0,572,-736
0,-192,7696,511,850,-292
0,-144,8008,0,494,-78
255,-192,7720,511,612,182
255,-160,7704,511,526,118
255,-344,11920,256,642,-406
0,-392,11976,255,620,156
0,-432,11944,767,348,174
-256,-264,11912,256,848,-194
255,-464,11912,256,906,-240
0,-344,11912,511,616,156
0,-376,11904,256,768,-204
0,-344,11672,511,350,-174
0,-376,11976,0,762,-290
0,-432,12024,511,816,-474
0,-448,11928,0,986,-150
0,-64,11776,511,642,124
255,-416,11944,0,392,90
0,-320,11936,256,662,-168
0,-392,11912,256,1250,-390
255,-392,11968,256,20,-276
0,-448,11920,511,804,-416
255,-392,11936,255,750,-422
255,-392,12016,256,910,-382
0,-400,11960,256,424,-266
0,-392,11944,255,988,-320
0,-360,11944,511,366,-368
0,-424,11888,0,1270,-446
0,-400,12256,256,272,-86
0,-384,11920,511,520,304
0,-432,11904,255,818,124
255,-368,12008,511,734,220
0,-432,12008,0,702,242
0,-448,11928,256,828,-508
255,-400,11960,256,764,-98
0,-352,11960,0,642,-410
0,-384,11872,0,942,-508
0,-408,11968,256,544,-188
255,-448,11904,256,460,252
0,-432,11968,0,1008,262
255,-440,11912,256,386,228
0,-328,15888,255,494,-232
255,-384,15664,255,1278,-454
255,-400,15888,256,600,416
0,-456,15936,256,532,-98
255,-448,15872,256,694,-56
0,-392,15664,511,308,-82
0,-408,15648,511,840,-478
255,-392,15632,511,976,-460
255,-608,15864,511,1046,-352
255,-368,15936,256,278,-84
255,-360,15680,256,1174,130
255,-344,15920,0,246,234
255,-376,15632,511,690,124
0,-424,15624,255,942,-198
255,-632,15864,511,926,-244
255,-440,15616,511,810,38
0,-400,15968,0,730,-142
0,-288,15688,511,930,-692
0,-336,15632,255,636,-482
255,-336,15952,256,882,-252
255,-600,15832,511,628,14
0,-368,15920,256,1110,-388
0,-400,15920,0,506,-20
0,-344,15888,0,1012,362
255,-328,15664,255,496,306
255,-360,15880,256,1064,138
255,-696,16120,256,382,38
0,-264,15952,256,788,-140
255,-376,15712,767,870,-502
255,-304,15656,255,842,-480
255,-344,15920,256,522,-274
0,-312,15664,511,610,-320
255,-376,15720,255,432,4
0,-424,15976,256,688,106
255,-392,15960,256,1146,50
0,-400,15960,256,452,230
0,-384,15688,511,918,-414
255,-208,3952,255,612,-364
255,-176,3968,256,820,-724
255,-208,3984,256,1054,-210
0,-200,3984,511,356,-316
255,-240,3976,511,996,-456
0,-248,3960,255,760,-468
0,-232,3976,256,804,-498
0,-224,4000,511,860,-296
255,-232,3968,256,324,226
255,-248,4008,256,520,544
0,-216,3984,511,302,382
255,-240,3992,255,1262,-252
255,-216,3984,255,730,-498
255,-208,4000,511,276,-14
0,-232,4016,256,1020,-454
255,-200,3992,0,1014,-276
0,-208,3984,511,384,-618
0,-208,3976,511,1162,-454
255,-216,3984,256,348,490
0,-216,3984,256,94,398
255,-216,3984,511,552,486
255,-208,3968,256,414,-278
255,-208,3984,256,858,-252
0,-208,3984,256,660,30
0,-224,3984,0,482,-164
0,-216,3976,256,634,-72
0,-208,3992,0,950,-116
255,-224,3960,256,406,-428
0,-248,3984,256,1090,-492
255,-192,3984,256,568,-566
255,-248,3968,0,750,-260
255,-216,3984,511,462,-22
255,-192,3976,256,466,212
0,-216,3992,0,612,-254
0,-232,3968,511,664,-428
255,-192,3936,0,1258,-410
255,-200,3968,511,456,-378
0,-240,4008,511,588,-342
0,-232,7680,511,330,-300
0,-192,7720,511,1040,-488
0,-192,7984,256,406,-104
0,-184,7936,256,988,-382
0,-136,7728,255,1012,-332
255,-464,8168,256,570,-180
0,-120,7712,511,776,106
255,-168,7976,256,542,414
0,-184,7968,256,374,238
0,-184,7752,511,548,-30
0,-184,7960,256,520,-166
0,-96,7712,511,702,-130
0,-400,7928,511,774,-320
255,-152,7784,511,670,-484
0,-368,7880,255,954,-480
255,-224,7744,255,602,-174
255,-448,8176,256,660,172
255,-176,8008,256,794,304
0,-144,7952,256,546,66
255,-176,7728,255,894,-178
255,-184,7712,511,708,-120
255,-184,7984,0,826,-116
0,-216,7696,511,802,-344
255,-144,7800,511,472,-360
0,-152,7704,511,884,-194
0,-432,7912,511,290,-348
255,-128,7704,511,582,-572
255,-464,8176,256,908,-278
255,-176,8008,0,500,130
0,-208,7728,511,1012,42
255,-440,8184,256,860,22
255,-200,7976,256,652,-74
255,-208,7680,255,498,-164
0,-392,8184,512,864,-364
0,-208,7720,511,664,-464
255,-168,7712,511,524,-530
0,-168,7688,511,668,-540
255,-208,7968,256,688,-134
255,-392,11824,255,944,36
255,-416,11912,256,562,390
0,-440,11992,256,854,-342
0,-344,11936,0,730,-180
255,-384,11896,256,950,176
255,-376,11976,511,328,34
0,-376,11920,0,1242,-232
0,-416,11872,255,996,-78
0,-424,12024,511,398,-502
255,-400,11944,0,748,-462
255,-352,11976,511,740,-574
255,-336,11952,256,278,-586
0,-448,11952,256,944,-98
0,-408,11952,256,364,20
255,-288,12000,256,1162,366
0,-432,11976,511,80,-72
0,-448,11896,256,784,-66
255,-416,11968,255,646,-324
0,-392,11928,256,338,-140
0,-400,11904,255,652,-18
0,-344,11912,256,528,-214
0,-424,11896,256,920,-364
255,-360,11920,256,650,-370
255,-376,11888,0,218,-614
255,-416,11888,256,1022,-548
255,-456,11928,0,698,-322
255,-400,11936,256,74,-144
255,-368,11864,512,1086,324
0,-400,11952,511,296,190
0,-368,11912,0,446,206
0,-384,11904,256,692,-152
255,-336,11944,511,700,-130
0,-448,11912,256,514,-400
0,-432,11904,256,538,-406
0,-416,11944,255,736,-46
0,-376,11976,511,1112,-244
0,-504,11904,511,290,106
0,-408,15680,511,430,-70
255,-304,15696,256,852,-122
0,-384,15632,511,556,84
255,-280,16016,256,568,232
255,-384,15688,511,274,48
0,-448,15976,256,698,-112
0,-432,15928,256,572,-460
255,-424,15904,0,978,-312
0,-368,15944,256,558,-22
0,-320,15648,511,888,-682
255,-360,15648,255,736,-532
255,-304,15664,255,964,-238
255,-376,15648,511,334,498
0,-416,15688,255,748,144
255,-336,15680,511,560,428
0,-352,15624,511,688,-176
0,-360,15920,256,946,-220
0,-408,15664,255,678,-232
0,-400,15896,256,564,-320
255,-392,15968,256,944,-464
0,-672,15864,255,464,-176
255,-392,15944,256,158,-318
255,-312,15640,255,938,-370
255,-376,15936,256,582,-270
0,-328,15672,511,520,-432
255,-408,15680,511,668,168
0,-432,15672,511,544,-18
255,-336,15696,511,920,-252
255,-632,15840,511,308,-42
255,-384,15632,511,824,-356
255,-360,15656,511,518,-8
0,-384,15904,256,644,-368
255,-368,15640,511,948,-266
0,-344,15936,256,566,-84
0,-408,15920,256,954,32
0,-336,15880,256,634,262
0,-352,15984,0,988,-68
255,-248,4000,255,732,-138
0,-224,3960,511,650,-136
255,-224,3976,256,588,-170
255,-208,4000,256,662,-326
255,-200,3992,256,562,-242
0,-208,3968,256,880,-374
0,-200,3952,511,342,-286
255,-232,3984,256,684,-422
255,-216,3968,767,804,-554
0,-192,3968,256,30,-94
0,-224,4000,0,1020,174
255,-224,4008,256,348,136
255,-200,3968,0,964,2
0,-224,3960,511,378,-76
0,-216,3968,511,878,-494
255,-200,3984,255,754,-328
255,-232,3968,256,850,-340
255,-224,3984,0,488,-552
0,-208,3944,0,878,-742
-1,-24,3952,512,518,-166
0,-200,3984,256,910,6
255,-232,3984,511,278,-274
0,-248,3976,511,970,-330
255,-248,3992,511,566,124
0,-192,4008,511,458,100
0,-208,3976,256,964,136
255,-232,3976,0,974,24
0,-216,3960,511,532,-324
255,-184,3984,511,392,-408
0,-192,3992,0,1000,-350
0,-208,3992,511,612,-768
0,-240,3984,511,616,-686
255,-240,3992,256,908,-140
0,-224,3992,256,628,312
0,-232,3992,255,648,-168
255,-208,3984,511,1278,-230
0,-216,3992,511,394,-152
0,-192,7728,511,994,-398
255,-440,7928,767,1034,-380
0,-248,8000,256,958,-74
255,-160,7952,256,518,-146
0,-472,7912,511,1120,-420
255,-176,7720,255,640,-528
255,-144,7952,256,592,-842
0,-128,7720,511,654,-726
0,-200,7936,0,980,-492
0,-176,7744,511,828,-176
255,-152,7704,511,306,-82
0,-232,7696,255,470,-4
0,-224,7720,511,776,-398
255,-176,7944,256,728,-314
255,-240,8008,256,518,-398
0,-224,8008,256,700,-512
255,-168,7680,511,996,-306
0,-176,7680,255,692,-58
255,-208,7776,511,950,140
0,-176,7944,0,706,242
255,-160,7720,511,530,-32
255,-144,7696,511,564,-188
0,-144,7936,256,552,342
0,-416,7920,511,588,100
255,-200,7720,511,784,136
0,-192,7744,511,528,-254
255,-144,7984,256,614,-160
0,-144,7680,511,870,-328
255,-176,7712,511,308,-338
0,-208,7728,511,1048,-746
255,-152,7960,256,924,-210
255,-176,7720,511,912,328
0,-136,7744,511,288,350
0,-184,7704,511,864,318
0,-392,8184,0,718,192
0,-208,7704,255,760,96
0,-432,7912,511,388,-16
0,-112,7960,256,686,-358
255,-488,11952,511,1122,-464
0,-416,11976,256,520,-388
255,-440,11920,256,544,-340
255,-376,11928,256,652,-276
255,-432,11912,255,954,-472
0,-384,11904,256,520,-44
255,-376,11928,511,558,274
0,-424,11944,256,874,468
0,-384,11944,256,850,8
255,-456,11848,256,310,-6
255,-440,11952,511,688,-62
0,-416,11960,255,686,-368
0,-376,11896,511,878,-482
255,-344,11704,511,606,-438
0,-392,11656,511,1114,-452
255,-368,11912,256,578,-156
255,-360,11944,511,26,50
255,-368,11920,256,1150,244
255,-424,11992,0,746,-508
0,-488,11896,255,976,-448
0,-448,11888,256,680,-340
0,-440,11936,0,1268,338
0,-424,11936,511,390,212
255,-312,11952,511,604,-36
255,-424,11960,256,666,-90
0,-376,11896,511,808,-314
0,-424,11952,0,416,-276
0,-416,11952,511,816,-186
0,-432,12000,511,622,-128
255,-440,11960,255,728,702
0,-384,11992,511,572,426
0,-408,11888,511,526,120
0,-368,11968,255,1022,92
255,-424,11960,256,412,-128
255,-424,12008,511,772,-244
0,-424,11872,256,592,-334
0,-360,11880,511,852,-656
255,-296,15632,511,392,-306
255,-296,15952,512,514,4
255,-320,15624,511,820,-502
255,-376,15640,256,932,-494
0,-352,15664,511,290,-194
0,-328,15656,511,526,214
255,-600,15816,511,574,-32
255,-336,15712,511,578,-84
0,-320,15704,511,968,-446
511,-512,15992,511,576,-214
0,-416,15968,511,622,-70
255,-352,15656,255,370,-262
0,-600,16104,256,528,-534
255,-368,15712,511,574,-448
255,-264,15752,511,482,188
255,-304,15888,0,658,110
0,-288,15928,256,760,-254
255,-360,15672,511,1200,-424
255,-344,15648,255,456,-430
255,-576,16120,256,848,-502
255,-472,15960,256,96,-12
255,-368,15632,511,890,-36
255,-416,15920,256,550,-76
0,-328,15912,256,400,-298
511,-504,15736,255,882,-206
0,-384,15912,0,928,-464
0,-408,15664,511,696,-96
255,-744,15864,256,546,58
255,-280,15944,256,310,450
255,-336,15928,256,674,-114
255,-656,16096,256,574,-66
255,-384,15616,511,680,-74
0,-328,15984,256,740,-370
255,-392,15696,511,880,-386
255,-272,15624,255,480,-440
0,-312,15632,511,900,-376
255,-360,15952,256,336,118
0,-232,3992,255,1200,312
0,-248,3976,511,360,128
255,-240,3984,256,622,-410
0,-240,3968,0,466,226
0,-232,4000,256,936,92
0,-216,3984,511,936,-226
255,-216,3960,256,654,-220
255,-208,3968,511,872,-136
255,-208,3968,256,302,-318
255,-232,3976,256,524,-302
-256,-8,4000,511,830,-462
0,-248,3968,511,898,-364
0,-232,4008,255,496,-140
0,-200,3984,0,438,176
255,-208,3984,511,568,44
0,-248,3984,0,984,152
0,-224,3960,255,640,-210
-1,-16,3976,256,872,-362
255,-192,3968,0,676,122
0,-240,3992,511,560,-164
255,-232,3960,256,618,-120
255,-216,3976,256,626,-142
0,-192,3960,256,564,-374
255,-240,3984,256,924,-434
255,-224,3992,511,624,-78
255,-232,3976,511,442,60
255,-216,3992,255,846,504
0,-200,3912,511,84,198
255,-216,3976,511,554,-122
0,-224,3960,256,618,-306
255,-216,3968,256,654,-410
0,-216,3984,0,918,-342
255,-232,4000,256,854,-734
255,-192,3960,511,746,-130
0,-184,7688,255,696,-152
255,-136,7952,256,212,-58
0,-208,7744,255,1106,-428
255,-224,7680,511,702,-420
255,-192,7752,511,572,114
0,-216,8008,256,676,358
0,-144,7720,511,584,486
0,-248,7712,511,278,64
0,-168,7736,511,1128,-156
0,-152,7680,255,492,-154
255,-192,7720,511,568,-28
255,-192,7712,255,934,-114
255,-200,7952,256,882,-204
0,-224,7712,511,562,-178
255,-184,7952,256,618,24
0,-512,7880,511,668,184
255,-456,8184,256,776,78
0,-152,7680,255,712,52
0,-184,7704,255,994,340
0,-160,7680,511,330,446
0,-160,7696,511,674,-40
0,-168,8016,256,1340,6
0,-192,7752,511,156,-128
0,-240,7968,256,806,-384
255,-240,7960,0,1018,-156
0,-432,7928,511,298,-352
255,-152,7720,511,904,-192
0,-168,7984,256,656,76
255,-192,7736,255,750,92
255,-232,7736,511,622,-124
255,-128,7680,511,532,-160
255,-408,7920,255,678,-502
255,-392,11944,256,944,-146
0,-376,11896,511,416,226
0,-360,11976,256,588,-116
255,-408,11968,511,650,-152
255,-392,11952,0,992,-358
255,-448,11936,511,570,-436
255,-432,11944,256,884,-426
0,-392,11960,256,512,-212
255,-352,11968,511,672,244
255,-392,11928,512,314,366
255,-424,11888,256,800,216
0,-320,11976,511,642,-236
255,-376,11952,255,948,-116
255,-384,11856,256,432,-420
0,-432,11952,256,304,-292
0,-352,11920,511,564,-758
255,-368,11904,511,950,-412
0,-416,11816,255,690,-198
0,-376,11960,255,696,-326
0,-352,11904,511,678,-534
255,-176,11784,256,264,-280
0,-448,12184,256,996,72
0,-352,11920,511,538,672
0,-416,11872,0,466,222
0,-312,11864,256,1040,42
0,-400,11904,511,634,-182
255,-376,11952,255,950,-462
255,-432,12008,256,524,-482
255,-432,11880,511,516,-422
255,-352,11904,256,854,-210
0,-360,11936,511,628,222
255,-392,11976,255,686,406
255,-392,11960,256,522,8
255,-392,11920,256,894,-504
255,-336,15688,511,854,-248
0,-352,15704,511,346,396
0,-464,15680,0,698,240
255,-368,16008,256,690,-306
255,-360,15624,255,682,-252
255,-400,15912,256,892,-144
0,-600,16112,256,284,-296
255,-368,15920,256,798,-298
0,-440,15688,511,590,-408
255,-608,15808,511,836,96
0,-376,15640,255,742,292
0,-440,15696,255,712,52
0,-368,15952,256,970,-200
0,-392,15616,255,758,-370
255,-608,15856,255,738,-300
255,-320,15872,256,584,-318
0,-344,15936,0,402,-310
255,-352,15944,256,680,-16
0,-592,16088,256,586,-320
255,-664,15848,511,660,-362
255,-304,15664,255,744,-336
255,-408,15648,511,1142,-416
0,-320,15712,0,762,-256
255,-392,15672,511,638,400
0,-376,15968,256,966,-98
255,-288,15976,256,598,-180
0,-280,15680,255,954,174
0,-368,15920,256,300,-64
0,-344,15720,255,748,-466
255,-376,16040,256,604,-350
255,-352,15712,256,618,-738
255,-328,15976,256,848,-326
255,-392,15944,256,276,-144
255,-392,15656,256,556,144
255,-224,3976,511,564,-402
255,-240,3992,511,398,254
0,-216,3976,511,524,258
255,-232,3976,256,1010,414
255,-192,3992,255,688,120
255,-240,3992,511,650,-214
0,-216,3984,512,816,-120
0,-232,3992,255,256,-182
255,-192,3976,511,862,-136
0,-248,3984,511,570,-450
255,-208,3960,511,542,-296
255,-216,4016,511,580,476
0,-176,3976,0,422,404
255,-240,3976,0,754,132
0,-224,3992,256,630,-4
0,-248,3976,256,284,-260
255,-232,4016,256,974,-108
0,-232,3960,511,1140,-188
0,-200,4000,256,344,-494
0,-240,3992,511,612,-588
255,-224,4008,511,890,-260
0,-200,3984,511,276,-300
0,-200,3984,511,1188,-596
255,-216,3984,255,764,-460
0,-200,3968,511,586,210
0,-224,3960,256,526,266
0,-200,3984,0,862,2
0,-200,4000,511,916,-242
0,-200,4000,511,608,-238
255,-224,3976,511,782,-238
0,-256,3952,256,662,-502
255,-216,3976,511,624,-422
0,-232,4008,256,810,-332
0,-232,3992,256,126,-20
0,-232,3960,0,984,356
255,-184,8000,256,456,106
255,-472,8128,0,692,202
0,-104,7760,511,758,-90
255,-176,8000,256,604,196
0,-416,8160,256,384,-118
0,-464,7928,255,968,-18
0,-192,7968,256,264,-100
0,-152,7936,256,886,-396
255,-184,7968,256,256,-528
255,-192,7736,511,842,-558
255,-160,7688,511,1002,-762
255,-192,7952,0,724,-50
255,-424,7928,511,890,314
0,-448,8160,0,502,100
255,-184,7728,511,838,-210
255,-408,7928,511,810,-252
0,-208,7704,511,718,-286
255,-168,7688,511,264,-442
255,-168,7736,511,794,-308
255,-160,7728,511,298,-680
255,-216,7712,255,950,-156
255,-168,7704,255,498,-350
0,-200,7976,256,1224,-890
255,-136,7704,255,760,-818
255,-200,7728,511,528,-184
0,-128,7744,511,884,66
255,-168,7936,256,694,110
255,-176,7960,256,906,-128
255,-440,7920,511,678,-164
255,-448,8176,256,910,-228
0,-184,7944,256,670,-114
0,-192,7712,255,632,-496
255,-184,7936,256,658,-378
255,-168,7992,256,938,154
0,-432,7928,511,284,230
0,-184,7960,0,742,82
0,-440,11968,511,666,120
0,-440,11880,0,1022,-190
0,-440,11936,0,752,460
0,-392,11920,511,1018,6
0,-464,11896,0,694,24
0,-344,11952,256,590,-36
0,-416,11912,256,568,-442
0,-408,11952,256,924,-470
0,-440,11912,511,324,-266
0,-296,11944,255,890,-626
255,-440,11960,256,754,-250
0,-440,11888,511,564,430
255,-376,11696,511,788,170
255,-360,11976,256,278,48
255,-392,11968,0,762,-108
255,-456,11976,255,948,-46
0,-376,11984,256,308,-376
255,-424,11912,255,898,-214
0,-424,11912,511,690,-166
0,-360,12000,256,906,-212
0,-368,11968,511,150,-322
255,-368,11896,256,820,-484
255,-456,11928,0,988,-450
0,-408,11944,767,524,-244
0,-368,11904,255,648,122
0,-448,11912,256,674,2
255,-408,11936,0,690,-108
0,-344,11920,256,590,-156
0,-336,11872,256,784,-218
255,-368,11976,256,564,-222
0,-336,11952,256,368,-356
0,-376,11968,256,808,-740
255,-336,11968,511,662,-690
255,-392,11680,511,622,-142
0,-368,15656,256,308,-60
0,-320,15680,255,1268,-712
255,-320,16040,256,708,-228
0,-344,15664,511,872,0
255,-344,15648,511,574,318
0,-376,15984,256,514,232
0,-392,15872,256,810,-136
255,-360,15720,511,336,-76
0,-312,15632,511,886,-256
0,-288,15640,511,558,-28
0,-320,15656,255,670,-276
0,-328,15968,256,852,-246
0,-344,15664,255,760,18
0,-320,15920,256,870,330
255,-336,15648,255,692,140
0,-432,15672,511,828,-178
255,-376,15632,511,636,-382
0,-624,15856,255,760,-318
0,-400,15696,255,242,194
255,-328,15928,256,960,96
255,-672,16112,256,538,-34
255,-336,15696,256,552,-144
255,-352,15664,511,852,-174
0,-328,15632,511,344,-582
255,-464,15616,511,836,-400
0,-472,15648,511,302,-40
255,-336,15656,511,668,406
0,-376,15888,0,684,280
0,-320,15640,511,906,-180
255,-376,15944,256,534,-160
0,-368,15648,0,1000,-130
0,-672,15856,511,556,-214
255,-608,15864,511,596,-294
255,-392,15872,256,532,-328
0,-376,15704,0,742,-34
0,-200,3968,256,570,-290
0,-208,3976,256,882,-536
255,-232,3992,511,512,-340
255,-232,3968,256,568,-34
255,-192,4008,256,392,60
255,-224,3960,255,978,102
255,-208,3976,256,562,-116
255,-216,3968,256,864,240
0,-232,3952,256,332,-440
0,-240,3976,256,860,-332
0,-208,3976,256,372,-374
0,-248,3968,511,834,-306
255,-248,3976,255,718,-92
0,-216,3968,511,622,26
255,-200,3984,511,570,282
255,-232,3968,256,856,-100
255,-232,3984,0,506,-254
0,-256,3968,0,884,380
0,-192,4000,511,734,108
255,-200,3960,256,274,-38
255,-208,3976,256,580,-228
0,-208,3968,0,1012,-718
0,-240,3976,511,160,-422
0,-216,3960,0,760,-352
0,-208,3992,255,762,-668
255,-200,3960,256,612,-380
255,-224,3976,511,536,-220
255,-240,3976,256,662,154
0,-256,3992,256,1210,-206
255,-248,3992,255,628,-386
255,-216,3984,511,496,-140
0,-192,4000,256,918,-320
0,-232,3992,255,756,-424
0,-176,7736,511,396,-598
0,-160,7720,511,648,-38
0,-440,7904,511,596,-508
255,-160,7712,511,804,-428
255,-152,7712,511,362,-312
0,-136,7720,511,864,-456
255,-216,7712,511,592,422
0,-168,7696,511,598,26
0,-160,7696,255,1014,92
0,-192,7976,256,672,-62
255,-424,7896,255,914,-68
0,-144,7712,511,346,-258
255,-208,7712,511,536,-134
0,-376,7912,255,954,-440
255,-176,7680,511,984,-416
0,-176,7944,0,496,-70
255,-208,7944,0,492,454
0,-136,7984,256,336,-334
255,-224,7960,256,866,-228
0,-144,7712,511,636,378
0,-152,7960,0,1248,296
0,-432,8176,0,436,224
0,-248,7696,511,696,-230
255,-208,8008,256,890,-162
255,-184,7968,0,1014,-502
255,-176,7712,511,318,-494
255,-160,8000,256,1110,-392
0,-408,7928,511,494,-258
0,-168,7960,256,1168,104
0,-160,7944,256,336,342
0,-184,7952,256,552,230
0,-408,7928,511,520,-88
0,-184,7960,256,646,-324
255,-176,8024,256,262,-346
0,-360,11976,511,388,26
255,-376,11912,511,646,-110
255,-424,11896,256,1240,-206
255,-312,11928,0,718,-450
255,-352,11824,511,526,-266
255,-360,11856,255,992,-356
0,-456,11920,0,924,-744
255,-376,11912,256,606,-284
255,-408,11912,256,844,68
0,-400,12016,511,38,152
255,-416,11896,256,788,120
0,-352,11896,256,608,-66
0,-376,11920,256,268,-280
255,-336,11952,256,334,-276
255,-416,11912,511,608,-294
0,-432,11944,255,988,-318
0,-448,11936,256,686,190
0,-464,11928,511,258,-262
255,-392,11920,512,768,-554
255,-392,11960,256,256,-518
255,-344,11928,511,568,-124
255,-376,12152,256,792,122
255,-352,11888,255,672,314
0,-416,11912,511,984,56
0,-448,11912,0,640,-370
255,-408,11952,256,864,-504
255,-352,11640,511,888,-420
255,-376,11720,511,512,-394
255,-384,11936,256,1072,-440
0,-384,11928,256,348,-304
255,-408,11920,511,862,164
0,-424,11992,511,112,476
0,-408,11944,511,524,122
0,-440,11928,511,556,-388
255,-336,15696,511,704,-388
255,-368,15680,511,690,-476
255,-352,15936,256,700,-34
0,-312,15872,256,828,-450
255,-568,15864,511,732,-6
0,-304,15640,255,596,-396
255,-432,15728,511,666,-308
0,-448,15896,256,560,-624
0,-656,16112,0,1018,-276
255,-456,15656,767,588,114
0,-272,15624,255,338,164
0,-336,15904,256,788,-208
255,-296,15640,511,256,-370
0,-312,15640,511,610,-114
0,-392,15656,256,822,-408
255,-384,15648,256,880,-738
255,-352,15968,256,264,-596
255,-352,15648,511,552,-260
0,-352,15648,255,732,-108
255,-400,15976,256,662,204
255,-360,15680,511,842,122
0,-352,15704,511,1128,-134
0,-320,15976,256,560,100
255,-344,15624,511,410,402
255,-320,15640,511,832,174
0,-304,15672,511,690,194
0,-384,15672,511,518,-392
255,-672,16104,256,774,-324
255,-328,15912,256,592,-658
255,-536,15864,511,512,-590
255,-360,15664,511,812,-432
0,-392,15912,256,584,-88
0,-672,15848,511,552,150
255,-320,15672,511,130,470
0,-376,15696,511,550,-62
255,-312,15920,256,530,-126
0,-320,15648,256,454,-396
0,-232,3992,511,870,64
0,-248,3976,255,748,-142
255,-224,3984,511,610,228
0,-200,3968,512,612,138
0,-192,3976,0,752,-240
255,-184,3984,256,450,-532
255,-224,3968,0,958,-396
255,-224,3976,0,974,-208
255,-232,3976,256,628,296
255,-208,3960,256,388,230
0,-224,3992,256,530,-62
255,-232,3968,256,584,-68
0,-200,3960,255,652,-426
255,-240,3984,511,950,-144
255,-200,3992,256,350,-266
0,-216,3984,256,1116,-484
0,-232,3952,256,658,-176
0,-232,4000,256,768,-546
255,-208,3976,511,820,-956
255,-240,4000,256,384,-560
255,-232,3976,0,1250,-390
0,-208,4016,256,88,90
0,-208,4016,255,1276,92
0,-208,3984,256,610,-176
0,-216,3936,256,1042,-446
255,-216,3984,256,644,-450
255,-216,3992,511,386,-264
0,-216,4008,255,888,-328
255,-200,3976,256,1014,-288
0,-224,3976,256,616,-48
0,-240,3968,255,762,250
0,-224,3984,511,304,206
255,-224,3984,0,580,130
0,-112,7688,511,696,-120
255,-384,7928,255,744,470
0,-200,7704,767,308,102
255,-176,7720,511,850,-130
0,-104,7992,256,808,-512
255,-144,7704,511,740,-280
0,-192,7728,511,380,-294
0,-160,7712,255,700,-670
0,-200,7712,767,780,-970
255,-184,7960,256,530,-378
255,-488,7928,511,662,-182
0,-184,7936,0,500,194
255,-224,7760,511,686,172
0,-208,7720,255,1006,-206
0,-448,7928,511,316,52
0,-408,8184,256,1484,-446
255,-216,7704,511,34,-184
0,-440,8184,256,630,-138
255,-184,7976,256,868,-506
0,-152,7968,256,528,-336
255,-152,7760,255,734,-402
0,-216,7968,256,590,-638
255,-152,7936,256,820,-54
0,-192,7704,511,424,214
255,-504,7880,511,570,462
255,-184,7688,511,898,462
0,-200,7984,256,364,162
0,-192,7696,511,478,240
0,-240,7968,256,1400,-190
0,-200,7704,255,378,-400
255,-176,7688,511,880,-286
0,-184,7984,256,516,-64
0,-416,7904,255,708,162
0,-416,11920,256,996,342
0,-128,11808,255,1010,-720
255,-416,11912,511,600,-118
0,-344,11928,0,1012,98
255,-416,11920,511,324,100
255,-416,11672,511,518,-90
0,-464,11880,256,702,-314
255,-424,11992,0,970,-466
255,-408,11904,256,310,-232
0,-392,11880,256,778,-506
0,-376,11696,511,716,-690
255,-336,11976,0,732,-258
0,-432,11992,511,532,-180
255,-352,11920,256,530,240
0,-384,11952,256,834,0
0,-448,11952,256,654,-352
0,-376,11944,255,700,-386
0,-416,11992,511,758,-284
0,-368,12008,511,664,106
0,-432,11944,511,866,8
0,-424,11960,511,256,-60
0,-432,11904,511,322,-450
255,-424,11944,511,836,-332
255,-376,11928,255,704,-292
0,-400,11888,256,624,-482
0,-448,11920,0,440,-122
255,-464,11912,511,870,326
0,-384,11992,256,626,348
0,-416,11936,0,976,-164
255,-392,11968,256,892,-232
0,-408,11936,256,670,-194
0,-384,11976,256,816,-438
0,-416,11992,256,850,-596
255,-336,11984,256,588,-494
0,-312,15688,511,290,-242
0,-368,15920,0,706,-364
255,-408,15928,256,660,-446
255,-320,15880,256,898,-104
0,-360,15656,511,312,-156
0,-376,15624,767,770,404
0,-392,15624,0,-62,198
255,-336,15936,256,1198,0
0,-400,15696,511,514,108
255,-400,15728,511,790,-242
0,-584,15864,255,762,-38
255,-272,15920,256,552,-720
255,-392,15728,255,764,-314
0,-344,15976,256,888,-302
255,-360,15680,511,526,336
0,-352,15880,256,402,284
255,-336,15664,256,656,234
255,-296,15696,511,994,176
0,-352,15920,256,344,448
255,-312,15640,511,908,424
0,-624,15824,511,306,136
255,-392,15632,511,1246,-256
255,-408,15904,256,866,-248
0,-424,15928,256,338,-48
0,-400,15656,511,736,-70
0,-584,15784,511,528,-62
0,-320,15688,511,820,-68
0,-352,15696,511,40,450
0,-360,15664,511,792,270
0,-400,15976,512,536,114
0,-336,15624,255,254,156
0,-416,15680,511,782,216
0,-336,15664,511,302,-32
0,-208,4008,256,548,-418
0,-208,3968,511,774,-54
0,-240,3976,0,682,-246
0,-200,3976,256,380,-488
255,-232,3992,255,1136,-728
0,-224,3976,511,892,-768
255,-216,3960,256,880,-450
0,-208,3976,511,564,-184
255,-184,3968,256,870,22
255,-216,3976,255,444,-80
0,-224,3992,0,452,-294
255,-216,3984,256,1084,-392
255,-200,3968,511,218,-370
255,-232,3944,0,778,-500
0,-200,3992,256,468,-268
0,-224,3992,256,1044,-484
0,-208,3960,256,1016,-278
-256,-16,4000,0,952,-716
255,-200,3936,511,572,-432
0,-216,3952,511,936,-158
255,-224,3968,256,638,30
255,-216,3960,511,260,78
255,-224,3984,255,1018,-160
255,-216,4000,0,742,-4
255,-248,3976,256,446,-290
255,-240,3968,0,758,-202
0,-200,3984,256,848,-392
255,-184,7680,511,402,-588
255,-160,7968,256,578,-354
255,-176,7720,511,374,-276
255,-168,7712,511,666,-422
0,-152,7720,255,870,-620
0,-192,8008,256,878,-512
255,-208,7680,511,542,24
0,-160,7936,256,654,162
0,-184,7960,0,718,-38
255,-152,7992,0,728,-488
255,-136,7696,511,528,-290
0,-448,7928,511,928,-484
255,-416,8168,0,402,-386
0,-248,7968,0,690,-310
0,-448,7920,511,874,-430
0,-192,7960,256,394,-20
0,-192,7680,511,842,320
0,-216,7976,256,552,80
255,-464,7904,511,1128,-216
255,-120,7944,256,550,562
0,-176,7992,256,204,222
255,-200,7680,255,1008,74
0,-192,7936,256,920,26
0,-216,7976,256,304,76
0,-216,7704,511,544,248
0,-232,7680,255,1004,-24
0,-216,7944,0,750,-140
0,-152,7680,767,542,-14
0,-232,7680,255,1228,130
0,-192,8040,256,40,488
0,-176,7752,255,742,206
0,-168,7984,0,462,-34
255,-176,7968,256,590,-444
255,-144,7936,256,954,-726
255,-384,11936,256,302,58
0,-408,11704,511,532,-88
0,-424,11880,0,766,-16
0,-456,11904,256,564,54
255,-392,11976,255,976,-104
0,-416,11888,0,1014,-458
0,-480,11952,511,834,-176
0,-344,11880,511,630,252
255,-440,11936,511,616,280
255,-424,11872,0,686,392
0,-392,11912,511,348,-36
0,-360,11880,511,1226,-252
0,-416,11936,0,430,-334
255,-456,11944,511,606,-352
255,-456,11904,511,930,-502
0,-408,11952,256,534,-744
255,-464,11904,256,860,-434
255,-400,12184,256,750,208
255,-400,11880,511,846,-342
0,-424,11984,256,614,-580
0,-424,11952,511,276,-256
255,-408,11976,256,802,-144
255,-416,11944,256,596,14
255,-432,11960,255,416,-60
255,-368,11936,256,1040,-234
0,-408,11936,256,704,-130
255,-368,11952,511,526,-208
0,-464,11688,511,842,-404
255,-336,11976,511,546,-348
0,-360,11968,255,1012,-194
0,-400,11920,256,520,150
255,-392,11936,256,682,44
255,-464,11960,255,1088,-224
255,-456,11936,256,22,-14
255,-320,15640,511,904,356
0,-336,15648,511,654,486
0,-440,15656,255,684,-104
0,-376,15648,511,558,-320
255,-624,15824,767,536,-380
255,-352,15632,511,350,-96
0,-352,15720,511,1254,-424
0,-632,16112,255,968,-660
255,-384,15616,511,590,-120
255,-600,16072,256,556,402
0,-392,15616,511,866,412
0,-344,15696,511,282,172
255,-376,15880,256,538,-244
255,-344,15616,511,918,-110
255,-392,15656,511,612,-476
255,-368,15712,511,566,-288
255,-352,15904,256,522,-580
255,-416,15688,255,766,-364
255,-688,16120,256,382,-268
255,-376,15648,255,718,-304
255,-360,15720,511,1016,-280
0,-400,15656,511,328,-62
0,-280,15920,256,630,236
255,-392,15664,511,372,54
255,-344,15920,0,478,218
0,-320,15984,0,718,-12
255,-448,15640,511,572,38
0,-272,15648,511,530,-242
255,-312,15968,256,1000,-322
0,-600,15864,511,858,-394
0,-320,15896,256,792,-616
255,-384,15944,256,730,-56
0,-344,15936,0,448,182
0,-456,15712,255,688,-186
255,-216,3960,255,996,-50
255,-192,4016,255,418,26
0,-184,3976,511,728,104
0,-216,3992,511,1200,-144
255,-224,3968,511,392,-214
255,-208,4000,255,652,182
0,-208,3960,511,1004,-216
255,-248,3976,255,358,-80
0,-224,4000,256,980,-412
0,-224,3952,511,820,-448
255,-216,3968,511,292,148
0,-208,3992,511,680,138
255,-200,3992,256,1110,338
0,-200,3952,256,576,-200
0,-216,3976,256,578,-188
0,-232,3944,511,1082,-502
255,-240,3976,511,456,-204
255,-240,4008,256,542,-656
255,-224,3968,256,596,-438
255,-208,3928,511,564,-156
0,-248,3968,512,604,-408
255,-208,3960,0,710,-668
0,-216,3976,511,576,-378
255,-200,3984,511,848,40
0,-224,3992,511,860,12
255,-216,3976,511,636,360
0,-232,3968,255,748,-40
255,-208,3976,767,260,-290
255,-208,3976,511,546,-4
255,-200,4008,256,550,-238
255,-208,3968,256,628,-34
0,-200,3992,256,850,-576
0,-216,4000,0,734,-94
0,-224,3960,256,624,74
0,-200,7968,256,814,84
0,-448,7912,511,542,-134
0,-224,7680,511,966,0
0,-224,7760,511,550,64
255,-432,7888,511,822,16
0,-184,7712,255,606,-240
0,-168,8000,0,664,-126
0,-168,7728,511,674,-102
0,-160,7728,511,836,-76
0,-168,7960,256,634,-468
0,-432,7920,511,312,-326
0,-160,7944,256,792,-216
0,-176,7680,255,750,110
0,-200,7992,256,610,218
0,-240,7984,256,40,94
-256,-264,7928,511,1366,-160
255,-192,7960,256,290,-198
0,-208,7696,255,1010,148
0,-200,7752,511,334,-198
255,-192,7704,511,1148,-182
255,-192,7952,0,1006,-508
255,-192,7936,256,366,-380
255,-192,7704,511,1334,-496
255,-152,7680,255,234,-286
0,-176,7712,511,512,-12
0,-192,7736,511,894,358
0,-216,7688,511,288,480
255,-168,7712,511,724,-190
255,-168,7712,255,748,-4
255,-208,7968,256,752,-32
0,-136,7720,255,742,-418
255,-192,7936,256,266,-268
0,-184,7704,511,808,-292
255,-184,7704,511,534,-488
255,-152,7984,256,988,-182
255,-400,11712,511,546,-506
0,-352,11936,511,664,-582
0,-464,11880,0,966,-410
255,-360,11936,256,408,-122
0,-384,11944,0,480,144
255,-416,11704,511,880,-162
255,-448,11912,511,524,-22
0,-432,11968,255,852,-454
255,-392,11984,256,938,-162
0,-424,11912,511,40,-114
0,-432,12224,256,610,-374
0,-424,11968,0,1276,-48
0,-400,11944,512,86,142
0,-408,11976,255,466,324
0,-432,11960,256,890,92
0,-408,11936,256,702,214
0,-400,11928,255,466,248
0,-464,11976,512,516,-42
0,-392,11912,256,22,-230
0,-384,12024,256,1174,-492
0,-384,11976,256,924,-500
255,-464,11936,511,404,-440
0,-424,11896,511,828,-698
0,-352,11944,511,912,-1010
255,-392,11952,256,772,-296
0,-376,11880,511,132,-50
255,-392,11912,256,858,164
0,-376,11888,255,456,218
0,-464,11976,511,832,-300
0,-408,11912,256,578,-384
0,-416,11896,511,272,-354
255,-376,11984,256,648,-328
255,-448,11840,511,612,-152
0,-384,11872,511,294,-278
0,-376,15632,511,408,-346
255,-440,15616,511,4,-502
255,-304,15680,511,1112,-500
0,-288,15648,511,340,-526
255,-448,15928,256,630,-108
255,-352,15648,511,366,72
0,-384,15928,0,666,-162
255,-360,15664,511,948,-154
255,-344,15912,256,474,-362
255,-648,15856,767,784,-22
0,-456,15648,511,604,-134
0,-344,15936,255,1218,-512
255,-368,15632,511,714,-450
0,-304,15936,512,796,-236
255,-416,15904,256,340,156
255,-448,15920,0,758,222
0,-672,15824,511,466,228
0,-376,15992,511,654,-146
0,-392,15656,767,540,162
0,-392,15720,255,700,-10
0,-296,15632,511,340,-210
0,-368,15880,256,584,-142
0,-456,15736,255,764,-296
255,-264,15928,256,846,-250
255,-320,15656,511,318,-638
255,-280,16000,0,1460,-598
0,-376,15656,255,204,-84
0,-344,15648,255,754,454
0,-416,15656,511,910,256
0,-288,15648,511,514,16
0,-384,15936,0,1254,-222
0,-536,15848,511,646,-190
0,-376,15648,511,268,-304
0,-208,3992,256,1076,-388
255,-192,3960,256,546,-152
255,-240,3952,256,800,-128
255,-232,3976,256,232,-116
0,-216,3968,0,950,-458
255,-232,3968,511,842,-594
255,-216,3976,256,664,-556
255,-224,3976,256,266,-26
255,-232,3976,256,596,48
0,-240,3992,0,478,-364
255,-232,3976,0,816,-408
255,-224,3984,512,880,-358
0,-200,4016,256,288,-276
0,-224,3976,511,988,-620
255,-232,3936,511,592,-760
0,-216,4000,511,1180,-380
0,-176,3992,511,276,142
0,-256,3952,256,1238,-750
255,-208,4000,255,1010,-324
255,-216,3984,256,340,-248
0,-224,3952,256,856,158
0,-240,4000,511,834,126
255,-224,3960,0,480,-132
255,-248,3984,511,538,-12
0,-224,3984,255,894,-476
255,-216,3984,256,866,-380
0,-208,4008,511,306,-352
0,-192,3976,256,1096,-700
0,-224,3960,256,548,-480
0,-232,3968,256,882,-120
255,-248,3968,0,722,118
255,-256,3984,511,634,-78
255,-248,3976,511,564,-450
255,-224,4008,256,544,-396
255,-208,7688,511,586,502
255,-112,7704,255,736,6
255,-440,7928,511,920,24
255,-144,7992,256,828,-176
255,-168,7712,255,736,-344
255,-168,7704,511,662,-6
0,-216,7696,255,1224,-478
0,-240,7960,256,738,-632
255,-240,7744,767,1054,36
0,-160,7992,0,226,416
0,-160,7728,511,1190,152
255,-216,7712,255,474,70
0,-136,7720,511,724,-64
0,-128,7704,511,560,-28
0,-136,7968,256,656,-300
255,-424,7912,511,592,-114
0,-224,7760,255,1170,-470
0,-240,7960,256,814,-374
0,-208,7968,256,936,-468
0,-200,7728,255,692,-410
255,-136,7728,511,976,-418
255,-160,7704,511,290,62
0,-168,7744,511,604,300
255,-152,7744,511,652,186
255,-232,7728,511,438,134
0,-160,7952,0,1014,-168
255,-200,7736,511,608,-84
0,-232,7736,255,972,-468
255,-416,8184,256,612,-536
255,-376,7864,511,582,-566
255,-176,7704,511,942,-72
255,-152,7736,255,646,58
255,-176,7752,255,756,466
0,-400,8184,256,514,-170
255,-144,7704,511,728,-36
0,-432,11920,0,1000,-116
0,-440,12016,511,436,-298
255,-440,11920,511,944,-508
255,-488,11896,256,748,-274
255,-392,11960,511,516,-436
255,-448,11912,256,1134,-412
0,-368,11888,256,436,-322
0,-392,11856,255,674,-330
0,-416,11936,256,694,-306
255,-336,11928,256,630,202
255,-376,11920,512,590,260
0,-416,11936,0,692,370
0,-336,11928,256,664,-122
255,-400,11928,511,616,-164
0,-368,11928,511,790,-412
255,-432,12008,511,566,-440
0,-448,11904,255,480,-280
255,-392,11920,256,1064,-372
255,-360,11936,255,494,-172
255,-368,11984,256,630,336
0,-112,11776,511,806,348
0,-368,11912,511,826,-164
0,-432,11888,511,1008,350
255,-376,11944,256,596,178
255,-400,11960,255,484,410
0,-360,11992,511,796,-184
255,-352,11968,255,762,-168
0,-376,11888,512,530,-30
0,-360,11872,256,570,-402
0,-408,11944,256,788,-566
255,-432,11856,256,960,-506
0,-464,11864,255,974,-86
255,-472,11952,511,438,254
0,-416,11928,511,840,-164
0,-408,11912,256,684,-344
255,-392,11952,511,814,-230
0,-360,11928,0,396,-292
255,-592,15840,511,748,-182
0,-368,15664,511,338,-200
255,-368,15728,511,1156,-202
0,-544,15864,767,588,-170
0,-392,15656,511,270,-60
0,-384,15664,511,878,-166
0,-392,15880,0,764,-228
0,-328,15672,0,734,220
0,-400,15704,511,368,496
0,-304,15712,511,914,12
0,-632,15600,511,386,-86
255,-392,15928,255,1008,-238
0,-352,15912,0,744,-336
0,-384,15928,0,988,-332
255,-376,15672,511,788,-478
256,-504,15696,511,658,-596
511,-504,15624,0,972,-230
0,-328,15680,256,802,-98
0,-440,15640,255,1248,-8
0,-312,15664,511,310,-72
0,-688,16080,256,694,0
0,-384,16008,255,1020,416
255,-400,15968,256,26,368
0,-400,15888,256,552,-126
255,-320,15632,0,956,-164
0,-432,15904,256,738,-238
0,-328,15904,0,702,-8
0,-384,15928,256,320,-356
255,-416,15656,255,984,-478
255,-600,15840,767,774,-188
0,-304,15952,256,640,108
255,-392,15704,511,932,12
255,-312,15920,0,224,220
0,-248,3968,256,970,-238
255,-208,3984,256,552,492
0,-216,3952,256,260,198
0,-224,3968,256,768,-90
255,-224,3936,511,706,-172
255,-216,4008,256,614,-300
255,-208,3992,767,1030,-456
0,-200,3944,255,384,-334
0,-224,3984,256,908,-396
0,-232,4000,511,1030,-82
255,-200,3976,0,-64,500
0,-216,3968,0,764,454
0,-224,3944,256,592,132
0,-176,3984,511,996,234
0,-232,3992,255,744,-124
255,-216,4008,511,636,-114
0,-216,3960,256,646,-430
0,-208,3968,0,412,-592
255,-224,3960,511,902,30
0,-200,3976,511,528,-16
255,-232,3960,511,354,-332
0,-232,3984,511,924,-342
0,-224,3976,256,872,120
255,-200,3976,255,1020,368
255,-200,4024,256,340,88
255,-240,4008,256,916,106
0,-208,3944,255,434,-106
0,-240,3960,256,644,-306
255,-248,3992,0,652,-346
0,-224,3976,256,692,-488
255,-192,4024,511,782,-362
255,-200,3992,255,744,-166
0,-248,3976,256,596,178
0,-224,3968,255,764,120
255,-208,3992,511,650,248
0,-248,3992,256,28,-6
255,-208,7968,256,814,-18
255,-160,7968,256,528,-68
0,-152,7704,511,544,182
0,-424,7904,511,880,-280
0,-224,7752,255,450,-494
0,-200,7968,256,832,-410
0,-432,7904,511,828,-500
0,-208,7704,511,572,-324
0,-200,7712,511,628,-470
0,-456,8176,256,836,218
0,-176,7728,511,318,488
0,-448,8168,0,756,424
0,-144,7944,0,756,-182
255,-208,7712,511,528,-98
255,-208,7736,511,848,96
0,-400,8184,256,300,-126
0,-184,7728,511,928,-420
255,-184,7968,0,750,-688
255,-184,7728,511,336,-46
0,-192,7728,511,900,212
0,-192,7760,511,616,-266
255,-184,7976,256,690,-12
255,-200,7752,511,568,182
255,-240,7704,511,48,500
0,-200,7960,256,792,32
255,-216,7976,256,584,-118
255,-184,7712,511,372,-72
0,-120,7736,255,1516,-510
255,-192,7968,256,6,-354
255,-488,8184,512,802,-752
255,-248,7944,256,702,-364
0,-416,7896,255,740,-158
0,-440,8176,0,736,404
0,-232,7704,511,648,494
0,-160,7984,256,592,204
0,-392,11952,256,790,84
0,-336,11960,0,1488,118
255,-432,11944,256,314,186
255,-456,11872,256,700,-220
255,-376,11936,256,830,-82
255,-496,11984,511,948,-506
0,-424,11696,511,888,-456
0,-392,11984,511,566,-766
255,-424,11960,511,550,-524
255,-424,11904,511,352,-22
0,-384,11936,511,924,298
0,-432,11936,0,508,254
255,-336,11912,256,330,-28
0,-408,11672,255,1012,-466
255,-360,12024,511,576,-84
255,-376,11944,256,722,-510
255,-456,11888,256,298,-386
255,-344,11944,0,1208,-490
255,-400,11904,256,322,-276
0,-384,11936,256,808,-346
255,-384,11920,255,744,-658
255,-392,11960,256,608,-702
255,-416,11960,0,652,-176
0,-360,11896,512,806,46
255,-416,11944,511,552,2
255,-400,12016,256,680,242
255,-368,11912,256,768,42
0,-360,12016,256,748,206
0,-408,11936,511,630,-16
0,-424,11888,767,778,-184
0,-296,11920,511,648,-368
0,-400,11968,255,722,-336
0,-264,11944,511,866,116
0,-408,11896,256,692,-122
255,-432,11936,255,728,94
255,-320,15656,256,690,-192
0,-416,15912,256,632,82
0,-408,15880,255,986,102
0,-384,15648,511,452,-230
0,-360,15648,511,524,-20
255,-328,15648,511,1036,-178
0,-376,15984,512,774,-428
0,-392,15960,0,158,-316
255,-312,15648,256,834,-454
0,-296,15736,511,682,-594
255,-304,15960,0,464,-8
255,-592,15856,511,346,248
255,-288,15632,511,912,120
0,-344,15912,256,338,-236
255,-632,15776,511,970,-18
0,-392,15744,511,802,-488
255,-336,15888,256,304,-194
0,-344,15960,0,1178,-592
255,-296,15896,256,556,-506
0,-360,15704,511,664,-466
0,-400,15680,255,972,-606
255,-632,16104,511,700,-646
0,-352,15664,511,548,-596
255,-648,16112,256,1070,4
0,-688,15856,511,256,50
255,-352,15680,511,232,202
255,-368,15688,511,846,-242
0,-312,15976,0,1144,-462
0,-336,15920,0,0,-136
0,-328,15704,511,1002,-370
0,-696,16120,256,778,-690
255,-384,15904,256,758,-710
0,-400,15696,255,1248,-454
255,-368,15896,256,306,76
0,-216,3960,511,628,-614
0,-176,3984,256,1058,-504
0,-232,3992,256,508,-288
255,-240,3968,511,530,224
0,-208,3976,256,788,-154
255,-192,3976,511,564,-130
255,-200,3968,256,570,-178
255,-224,3976,256,422,-10
0,-208,3976,256,528,-368
255,-208,3968,256,692,-346
255,-232,4016,255,752,-484
0,-200,3984,256,666,-42
0,-248,3976,511,532,250
255,-248,3984,256,328,138
255,-248,3992,255,1214,106
0,-240,3960,511,28,-78
0,-216,4008,0,972,-276
255,-184,3928,256,606,234
255,-232,3968,511,656,-54
0,-224,3976,511,296,-214
255,-248,3960,511,602,-286
255,-224,3968,511,776,-460
255,-232,3992,255,712,-96
0,-224,3976,256,388,-606
255,-216,3984,256,928,-176
0,-208,3992,511,350,372
255,-216,3984,511,998,272
255,-200,3976,256,864,154
255,-248,4008,511,816,282
0,-248,4000,511,320,-78
255,-240,3976,0,704,-10
255,-232,4000,256,550,60
0,-224,3952,511,1272,-496
255,-216,7704,511,288,-444
255,-224,7704,767,776,-768
255,-376,8168,0,1018,-552
0,-192,7960,256,590,-708
0,-160,7768,255,1008,-202
0,-160,7720,255,468,100
0,-152,7936,256,780,142
255,-208,7680,511,58,44
0,-184,7976,256,1046,-350
0,-216,7984,256,360,-290
255,-232,7768,511,590,-264
255,-224,7944,256,260,-410
0,-136,7992,256,804,-434
0,-216,7712,511,782,-484
0,-192,7728,511,362,-148
255,-152,7944,256,546,172
255,-216,7704,255,988,134
255,-424,8184,256,860,-206
0,-184,7960,256,786,192
255,-184,7736,511,348,2
0,-152,7688,511,542,-402
0,-112,7944,256,768,-596
0,-408,7928,511,180,-710
255,-144,7720,256,1186,-260
0,-152,7712,511,546,-108
0,-192,7688,511,528,-458
0,-464,8176,256,1190,-442
0,-456,7928,511,608,200
0,-472,7928,511,906,122
255,-168,7944,256,324,156
0,-192,7704,255,864,-46
255,-192,7992,256,706,-38
255,-184,7688,511,350,-356
255,-184,8000,0,998,-512
255,-408,11960,511,936,-442
0,-392,11976,511,572,-232
255,-440,11984,511,566,-278
255,-392,11960,511,952,-366
0,-432,11912,256,562,-658
255,-392,11960,511,578,-582
255,-408,11920,511,540,-272
255,-392,11944,256,604,224
255,-416,11880,511,372,150
0,-408,11920,255,742,-44
255,-432,11912,0,482,-102
0,-408,11848,256,1070,-116
255,-368,11880,0,716,-324
255,-360,11840,256,418,-304
0,-432,11920,511,984,-702
255,-400,11944,511,766,-340
255,-400,11920,511,354,112
0,-424,11920,511,1200,-498
0,-360,11904,511,714,-408
255,-408,11920,256,620,-172
255,-384,11920,0,660,124
255,-328,11952,511,728,110
0,-400,11984,511,292,-34
255,-400,11944,255,634,-364
255,-408,11800,511,264,-306
0,-400,11944,511,812,-500
0,-384,11912,256,1150,-454
0,-456,11840,256,402,-428
0,-320,11984,511,628,-112
0,-360,11912,511,846,28
255,-344,11920,256,656,58
255,-440,11976,256,590,80
0,-424,11936,511,674,-190
255,-432,11984,0,1256,-194
0,-416,15656,0,242,242
0,-400,15920,256,1132,-250
0,-328,15952,0,678,-128
255,-344,15720,511,466,-290
0,-264,15640,511,652,-266
255,-360,15656,511,832,-374
0,-400,15672,511,598,-610
0,-416,15976,256,566,-302
255,-352,15688,256,366,220
0,-352,15912,0,1004,90
255,-368,15912,256,296,34
0,-368,15640,511,598,-192
0,-640,15848,256,788,-388
255,-296,15872,511,552,-552
255,-352,15624,255,386,-356
255,-384,15664,511,906,-358
0,-272,15680,511,702,-364
0,-584,16112,256,804,-612
255,-320,15640,255,488,-572
255,-280,15720,256,866,-738
255,-464,15672,511,644,-348
255,-336,15648,511,714,124
0,-304,15712,255,458,32
0,-336,15920,256,884,56
255,-384,15664,511,344,100
0,-360,15680,511,802,-246
0,-368,15664,511,1184,-510
0,-376,15672,511,636,-758
255,-392,15640,255,786,-1010
255,-320,15928,256,710,-582
255,-424,15904,256,946,-134
255,-352,15976,0,646,200
255,-640,15856,511,60,496
0,-216,4000,256,1158,44
0,-200,3960,256,308,196
255,-232,3984,256,708,508
255,-216,4000,255,700,-146
0,-248,3976,255,970,-46
0,-200,3984,256,704,-340
255,-200,3984,0,1000,-308
255,-224,3984,511,42,-582
255,-240,3968,511,1082,-338
0,-216,3984,256,666,-462
255,-216,3944,0,1002,-118
0,-224,3984,0,954,10
0,-192,3968,256,302,-250
0,-232,3992,256,810,-476
0,-200,3952,256,834,-16
0,-216,4000,511,594,-290
0,-224,3976,511,352,-50
0,-224,3984,256,318,-408
255,-208,4000,256,570,-316
0,-248,3976,511,964,-342
255,-200,3984,511,318,-74
0,-224,4008,256,580,-598
255,-216,3968,511,592,-304
0,-232,3952,256,1006,-236
255,-240,3992,511,268,100
255,-208,3984,256,622,-240
255,-216,3968,256,904,-278
255,-232,3952,256,634,-710
255,-232,3984,255,766,-292
0,-224,3960,255,742,-292
0,-216,3984,511,544,-566
-1,-8,3960,255,686,-342
0,-240,3984,256,646,-372
255,-192,7720,511,64,220
0,-408,7920,511,848,-580
0,-256,7704,255,508,-586
255,-184,7712,511,834,-144
255,-152,7936,256,360,36
0,-488,7848,511,412,168
255,-176,7936,256,824,-136
255,-208,7696,255,1242,180
0,-192,7960,256,486,-268
255,-144,7712,511,800,-462
255,-224,7960,256,946,-342
255,-224,7696,511,688,-454
255,-440,7920,511,770,-202
255,-176,7984,256,970,118
255,-168,7944,0,886,372
0,-488,7928,511,140,-28
0,-200,7704,511,558,-136
0,-216,7952,256,584,-306
255,-184,7976,256,670,2
0,-184,7744,511,630,-284
255,-184,7688,511,826,-494
255,-200,7720,511,396,-350
0,-200,7704,511,530,-502
0,-184,7712,511,586,-694
255,-224,7744,511,1092,-730
255,-144,7968,256,538,-698
255,-160,7936,256,626,-106
255,-168,7960,256,352,248
255,-200,7696,255,736,144
0,-200,7976,0,1000,96
0,-232,7696,767,298,-412
255,-200,7952,256,1052,-344
255,-160,8008,0,424,-476
0,-152,7680,511,398,-528
255,-360,11936,256,1038,-422
0,-384,11728,511,428,-32
0,-344,11976,256,1108,-752
255,-360,11944,256,870,-982
255,-320,11632,255,486,-290
255,-392,11936,511,884,178
0,-328,11904,256,332,150
255,-384,11936,511,850,12
0,-392,11888,511,528,-58
0,-360,11920,256,818,-404
255,-384,11952,0,630,-260
0,-400,11944,256,446,-552
255,-392,11968,256,796,-718
255,-432,11952,511,624,-550
255,-376,11888,256,638,-414
255,-344,11912,256,634,254
0,-400,11920,256,330,-138
0,-456,11960,255,1278,-218
0,-480,12000,511,1236,266
0,-360,11944,511,324,684
0,-440,11920,511,654,18
255,-424,11992,511,546,-132
255,-400,11968,511,474,-16
0,-408,11616,255,966,-158
0,-384,11872,511,528,-312
255,-432,11984,511,636,-554
255,-464,12008,255,992,-690
255,-400,11960,0,456,144
0,-432,11920,256,310,148
255,-368,11872,511,754,168
0,-352,11952,256,312,116
0,-440,11944,256,852,-198
255,-392,11960,511,540,-116
0,-440,11928,0,508,-480
0,-440,11968,256,902,-626
0,-288,15712,511,380,-76
0,-320,15896,256,994,-46
255,-328,15936,0,652,-50
255,-376,15680,511,548,-116
0,-416,15952,512,778,-246
0,-376,15704,511,292,112
255,-416,15944,256,1264,396
0,-288,15632,511,290,-164
255,-392,15760,256,558,-112
255,-336,15872,256,904,-332
0,-320,15936,0,410,-332
255,-344,15800,511,602,-100
0,-320,15648,511,790,-352
255,-384,15680,511,356,-278
0,-368,15664,511,538,-2
255,-664,15848,511,570,266
0,-368,15704,511,1188,300
0,-320,15912,256,1140,-266
255,-352,15648,255,758,172
0,-296,15672,256,386,432
255,-360,15928,256,826,198
255,-400,15664,255,762,-86
0,-616,15848,256,258,-384
255,-448,15912,256,588,-98
0,-680,16120,256,922,-62
0,-448,15640,511,534,-584
255,-288,15896,256,636,-328
255,-440,15640,256,746,-64
0,-624,16112,0,1200,256
0,-288,15888,256,400,248
255,-360,15928,256,434,208
0,-392,15888,256,840,-52
0,-536,16120,256,388,-60
0,-208,3984,511,1146,-36
255,-184,3968,256,40,-216
0,-240,3984,256,804,-76
255,-224,3984,511,878,-484
0,-232,3968,767,608,-456
0,-184,3984,511,890,-748
255,-224,3984,256,572,-296
-256,-8,3960,511,776,-152
255,-192,3968,511,298,200
255,-248,3992,256,654,72
255,-224,3960,0,736,-232
0,-232,3952,256,546,-338
255,-208,3976,0,1002,-598
0,-216,3968,0,452,-758
255,-200,3968,256,810,-596
0,-224,3960,256,630,-816
255,-232,3984,255,728,-714
0,-224,3960,511,892,52
0,-224,3960,511,548,-520
255,-216,3960,256,594,-96
0,-192,3984,256,640,-156
0,-224,3976,256,658,228
0,-200,3992,256,782,12
255,-232,3968,511,46,-2
255,-224,3968,511,1106,-104
0,-256,3960,511,696,-440
0,-208,3968,511,610,-482
0,-224,4000,511,308,-672
255,-200,3960,256,604,-524
0,-216,3968,0,666,-344
255,-208,3976,256,294,-38
0,-240,3984,0,740,180
255,-224,3984,256,546,164
0,-192,8016,256,274,-92
255,-192,7696,511,824,478
0,-224,7976,0,408,440
255,-216,7952,256,638,74
255,-216,7704,255,1270,278
0,-112,7680,511,542,-164
255,-200,7712,255,722,-324
255,-200,7696,511,646,-272
0,-216,7968,512,1068,-724
255,-160,7736,255,708,-346
255,-232,7968,512,542,-228
255,-72,7936,0,510,238
255,-176,7976,256,848,156
0,-440,7928,511,424,-104
0,-176,7968,256,832,-168
255,-432,7928,255,720,-6
0,-168,7952,256,376,-116
0,-128,7680,511,772,-204
0,-176,7968,256,592,-274
0,-168,7976,256,334,-396
0,-144,7720,511,588,-498
0,-184,7712,511,1078,-348
0,-336,7904,256,372,-510
255,-368,7896,511,572,-174
255,-160,7744,255,956,116
255,-192,7728,255,742,160
0,-200,7960,256,574,-284
255,-408,7904,511,1010,-494
255,-192,7688,511,292,-298
0,-208,8000,256,900,-760
255,-472,8168,256,534,-660
255,-448,7912,511,570,-744
255,-184,8008,0,992,-226
0,-192,7728,255,762,132
255,-360,11912,511,586,-390
255,-376,11960,511,912,-472
255,-416,12128,0,748,132
0,-456,11952,511,554,466
255,-448,11960,256,594,682
0,-424,11928,511,520,206
255,-304,11952,256,762,-22
255,-432,11936,256,590,-352
255,-376,11912,0,928,-238
0,-312,11640,511,610,-134
0,-424,11952,256,790,-338
255,-440,11960,256,844,-362
255,-432,11896,256,794,24
0,-400,11960,256,286,42
255,-432,11976,0,664,-274
0,-432,11944,511,706,-150
255,-448,11952,511,604,12
255,-384,11960,256,592,158
0,-424,11968,256,1224,-112
0,-448,11920,511,322,-32
0,-400,11968,255,338,-270
255,-432,11936,767,776,-356
255,-440,11920,511,328,-278
0,-376,12008,256,744,-502
0,-432,11896,511,1144,-204
255,-424,12216,0,716,342
0,-368,11968,511,642,184
0,-448,11944,0,692,-364
0,-368,11904,0,946,-334
0,-344,11816,256,544,-254
0,-384,12008,256,412,-604
255,-360,15640,511,356,408
0,-296,15672,511,744,92
255,-320,15936,0,588,136
255,-560,16104,256,372,212
0,-344,15648,511,1106,-158
0,-384,15952,511,298,-90
0,-448,15632,511,834,-120
255,-480,15984,256,662,118
255,-408,15696,511,130,506
0,-552,15848,511,854,186
255,-352,15632,255,376,-130
255,-320,15632,511,684,144
0,-384,15720,511,616,-168
0,-320,15672,255,1202,-356
255,-320,15912,256,670,-418
256,-472,15632,511,340,-298
0,-360,15928,511,892,-108
255,-424,15880,256,382,418
0,-336,15688,0,730,-322
0,-360,15664,511,800,-366
255,-320,15712,511,368,162
255,-312,15944,0,666,494
0,-392,15672,511,1188,-256
255,-280,15664,511,304,-226
0,-288,15960,256,1256,-504
255,-312,16016,0,202,-432
255,-656,15848,256,802,-706
255,-648,16096,256,936,-752
0,-336,15728,511,380,-558
255,-352,15936,0,1220,-110
255,-304,15624,256,358,204
0,-408,15632,256,388,-60
255,-624,16096,255,752,204
255,-648,15840,255,1012,-182
255,-232,4000,256,528,88
255,-184,3936,0,980,-68
255,-200,3984,256,676,-410
255,-216,3992,0,614,-356
255,-184,3984,511,820,-436
0,-208,3976,256,252,-140
0,-208,3944,256,1402,-466
255,-200,4000,511,610,-364
0,-216,4000,256,512,6
0,-224,3984,512,612,214
255,-240,3968,256,294,446
255,-184,3960,256,518,70
0,-192,3984,256,914,-264
0,-208,3992,256,832,-490
255,-208,3960,256,426,-272
255,-216,3960,256,330,-366
255,-192,3984,0,948,-534
255,-248,3976,256,668,-336
-256,-8,3976,255,1004,-424
255,-208,4000,767,268,-630
255,-216,3984,511,778,-322
0,-216,3984,256,596,178
0,-216,3920,511,356,252
255,-200,3968,256,654,-226
255,-192,3992,0,918,-346
255,-240,3968,256,530,-412
255,-240,3952,511,884,-336
255,-240,3992,256,616,-420
0,-232,3976,511,288,-598
255,-224,3968,256,694,-550
255,-224,3968,255,714,-52
255,-208,4000,512,788,268
0,-224,3976,256,570,194
255,-168,4008,255,212,132
255,-232,4000,511,618,232
0,-184,8016,0,728,-140
255,-176,7944,256,430,166
255,-456,8144,256,552,-20
0,-216,7952,0,750,-324
255,-168,7712,511,700,-422
0,-464,7928,255,918,-214
0,-176,7704,511,494,-320
255,-168,7696,255,998,-162
-1,-8,7704,511,848,-202
255,-208,7768,511,432,230
255,-504,8184,256,818,262
255,-168,7704,511,798,36
0,-192,7720,767,266,-106
0,-216,7736,511,580,-336
255,-80,7696,511,724,-436
255,-184,7976,0,214,-356
0,-136,7728,511,808,-702
255,-232,7960,256,80,-66
0,-448,8152,0,1048,-252
0,-400,7928,511,356,-302
0,-232,7704,255,640,-80
0,-152,7712,511,870,-30
0,-192,7680,511,378,6
255,-88,7680,255,896,114
255,-152,7720,511,1000,-210
0,-184,7696,511,608,-4
0,-168,7936,256,324,-346
255,-176,7704,511,682,-176
0,-216,7968,256,556,-502
255,-200,7960,256,904,-484
0,-192,7944,0,1000,-394
0,-200,7704,511,106,-2
0,-216,7704,511,1234,62
0,-168,7696,511,562,56
0,-408,11944,256,702,-218
255,-280,11896,511,1260,304
255,-424,11920,511,430,368
0,-424,11928,0,928,154
255,-392,11944,256,908,154
255,-360,11944,0,720,88
0,-384,11848,256,1230,126
0,-440,11944,256,616,-188
255,-344,11904,256,348,-366
0,-432,11912,256,842,-370
0,-384,11944,256,400,136
255,-328,12008,511,322,482
0,-424,11912,511,978,222
255,-336,11992,511,384,28
0,-368,11856,0,600,-208
255,-432,11952,256,790,-138
0,-384,11968,255,494,-232
0,-360,11960,511,336,-8
0,-304,11912,256,1158,-148
0,-360,11856,256,234,-440
255,-336,11968,0,706,-438
255,-432,11976,255,1182,-612
0,-456,11936,511,650,-288
0,-408,11880,0,392,-118
0,-336,11920,511,840,-116
255,-336,11896,511,296,134
0,-392,11920,256,668,-50
0,-384,11920,511,1160,-354
255,-384,11904,0,498,-198
0,-336,11920,511,444,-354
0,-480,11912,256,1076,-728
255,-416,11960,256,524,-284
0,-448,11912,256,550,-354
255,-312,15624,511,364,-446
255,-360,15712,255,1232,-116
0,-352,15904,256,348,-470
255,-336,15952,256,590,120
0,-376,15648,256,800,384
0,-368,15976,256,490,346
0,-360,16000,256,1072,-176
255,-584,15856,256,416,-108
255,-376,15992,256,944,-172
255,-288,15704,255,908,-90
0,-352,15880,512,266,-374
0,-352,16000,0,736,-556
255,-280,15976,256,556,-186
255,-408,15688,511,700,-148
511,-496,15648,511,612,24
255,-728,16112,256,584,-220
255,-672,15840,256,514,-326
255,-424,15656,511,790,404
0,-384,15656,511,374,148
0,-392,15680,511,786,-142
0,-544,16104,0,668,-164
0,-320,15680,511,576,-16
255,-384,15968,256,610,-198
0,-272,15632,255,974,-512
255,-608,15856,511,880,-472
0,-584,16096,256,1336,-234
255,-336,15640,511,292,336
0,-392,16016,255,1014,378
0,-312,15944,256,878,-250
255,-320,15616,255,480,-10
0,-352,15744,511,374,-330
255,-424,15704,256,580,-506
0,-352,15992,256,842,-788
255,-352,15688,256,598,-670
255,-248,4000,511,520,-114
255,-248,3992,511,912,-210
0,-232,3984,0,664,-490
0,-208,3968,511,1212,-388
0,-224,3968,0,478,-166
0,-240,3984,511,806,284
0,-240,3944,0,758,692
0,-200,4008,511,682,452
0,-224,3960,511,304,142
255,-216,3984,511,818,-22
255,-224,3976,511,608,-176
0,-240,3992,0,1016,-244
0,-256,3992,256,742,-362
0,-208,3992,255,1014,-412
0,-208,3960,256,646,-122
255,-208,3984,0,758,170
0,-232,3984,512,554,170
-1,-16,3936,256,266,-62
0,-192,3960,256,680,134
255,-224,3992,256,118,262
0,-240,3976,511,928,176
255,-240,3984,511,606,-70
255,-232,3960,0,736,-40
0,-216,3992,256,806,-362
255,-240,3968,256,398,-608
255,-224,3976,511,848,-674
0,-200,3968,511,370,-420
0,-208,4008,0,980,-396
255,-208,3976,256,376,192
0,-240,3976,511,582,-246
255,-192,3960,0,702,-384
-1,-8,3960,0,1000,-2
255,-240,3944,511,440,-168
255,-232,3976,511,1058,-164
0,-176,8000,0,220,-348
0,-352,7928,511,410,-140
255,-176,7720,767,812,-240
0,-432,8120,0,738,-196
0,-144,7720,511,1232,-672
255,-448,8168,256,560,-426
0,-168,7696,511,820,14
0,-104,7936,256,564,26
255,-416,8184,256,342,172
0,-120,7704,511,570,192
0,-160,7960,256,550,-112
255,-184,7696,511,624,-176
0,-416,8176,256,340,-312
255,-152,7944,256,874,-304
255,-216,8000,256,650,-200
0,-456,8176,256,618,-36
0,-144,7688,511,922,472
0,-160,7944,0,38,476
0,-240,7952,0,434,-540
255,-176,7992,512,550,220
0,-200,7728,511,600,242
255,-376,8184,0,194,128
255,-184,7736,511,984,-88
255,-168,7688,511,796,-252
255,-200,7712,255,504,-464
255,-184,7952,256,826,-348
255,-168,7744,511,670,-598
255,-480,8184,256,546,-456
0,-184,7696,255,1208,-456
255,-216,7992,256,310,48
0,-224,7960,256,854,-110
0,-408,7920,255,742,-244
0,-144,7736,511,956,-230
0,-152,7936,256,618,-132
0,-160,7960,256,544,-46
0,-152,7960,256,148,-260
255,-432,11880,255,670,-378
255,-360,11920,511,676,-302
0,-376,11920,511,268,-432
255,-384,11984,256,1146,-468
0,-376,11920,512,512,-258
0,-296,11968,255,472,-136
0,-328,11920,511,912,226
0,-144,11784,256,120,110
0,-408,11944,511,1076,16
255,-384,11928,511,558,-88
255,-376,11960,256,564,-124
0,-400,11848,256,416,-546
255,-432,11944,256,804,-596
255,-408,11888,0,960,-768
0,-368,11952,256,732,-726
255,-424,11960,0,1230,-212
255,-440,11936,511,322,202
255,-440,11928,255,964,-450
0,-176,11784,0,1002,84
0,-304,11872,255,1016,326
0,-408,11960,511,406,232
255,-376,11936,256,832,-152
255,-368,11816,256,670,-222
0,-432,11944,511,1074,-50
0,-336,12016,256,32,-246
0,-344,11864,511,830,-446
255,-464,11944,255,1008,-354
255,-440,11968,256,692,-158
0,-384,11864,255,722,48
0,-480,11920,511,918,412
0,-408,11928,255,936,300
0,-384,11904,256,438,-110
255,-384,11896,0,1268,-500
255,-448,11904,256,688,-370
0,-312,15872,0,898,458
0,-400,15632,255,700,118
0,-392,15952,256,962,-244
0,-408,15624,255,414,-28
255,-376,15968,256,816,-426
255,-328,15936,256,586,-532
0,-312,15632,511,846,-476
0,-312,15640,0,436,-78
0,-328,15648,511,394,472
0,-360,15944,256,598,218
255,-392,15632,511,582,-98
0,-360,15640,511,552,-364
255,-288,15680,511,820,-472
255,-296,15720,255,218,-378
255,-280,15976,256,970,-398
0,-320,15960,256,542,-450
0,-368,15744,511,872,-414
255,-368,15872,256,588,-360
255,-280,15640,511,586,-260
255,-416,15640,511,648,-40
0,-408,15712,511,584,140
255,-624,15840,511,634,446
255,-304,15656,255,756,306
0,-296,15640,512,606,438
255,-320,15616,511,848,274
0,-352,15672,511,2,-32
255,-360,15968,256,1066,54
255,-320,15888,256,372,-36
255,-424,15992,0,648,-86
0,-584,15864,511,514,198
255,-632,16088,256,982,330
255,-288,15712,511,596,302
255,-360,15648,255,740,240
0,-440,15984,256,602,172
0,-200,3952,256,722,6
0,-232,3968,255,508,222
255,-232,3976,511,840,-192
255,-224,3960,256,660,-422
255,-200,3968,0,720,-276
0,-232,3976,511,968,-304
0,-192,3976,511,330,-710
0,-200,3960,256,1152,-526
0,-240,3968,256,728,-208
255,-232,3976,0,472,140
255,-216,4008,511,960,258
0,-232,3976,511,398,186
0,-248,3992,511,662,-96
255,-224,3960,0,1014,-432
255,-216,3968,0,744,-338
255,-208,3968,256,572,-408
255,-200,3976,511,870,-330
0,-224,3984,256,918,-164
0,-192,3992,0,470,-484
255,-224,3976,256,898,-416
0,-208,3984,256,580,-340
0,-224,3976,256,664,-210
0,-240,3976,511,576,156
0,-200,3968,256,258,458
255,-232,3960,256,972,4
255,-208,3976,511,788,176
0,-224,3968,256,286,-140
0,-224,3960,0,1066,-398
0,-224,3984,511,312,-310
255,-224,3976,0,760,-736
0,-224,4008,511,854,-642
255,-200,3952,256,642,22
0,-240,3944,256,520,276
0,-176,7760,511,570,-670
255,-192,7936,256,426,-182
0,-152,7968,256,812,204
255,-152,7776,767,268,196
255,-216,7960,0,726,-48
255,-176,7712,511,1188,-240
0,-416,8168,256,436,-232
0,-208,7712,511,778,-362
255,-160,7712,511,728,-50
0,-448,7904,255,914,-386
0,-440,7904,511,550,-392
0,-192,7944,256,886,134
0,-152,7736,511,318,234
255,-200,7712,511,552,298
0,-168,7936,256,574,252
0,-208,7744,511,658,-24
0,-472,7928,511,478,-384
255,-144,8008,256,664,-462
255,-216,7952,256,848,-114
255,-192,7960,256,274,118
0,-160,7952,256,878,-176
255,-168,8000,256,972,-274
255,-152,7680,255,228,-310
255,-168,8008,256,918,-420
0,-128,7720,511,512,-96
255,-224,7936,256,528,114
255,-448,7904,511,420,84
255,-224,7960,256,814,-30
0,-216,7992,256,916,-442
0,-192,7784,255,466,-362
0,-160,7960,512,1162,-724
255,-208,7984,256,686,-516
255,-424,7928,511,996,-684
0,-392,7928,511,360,-24
0,-176,7968,256,544,-192
0,-440,11896,256,464,-460
0,-440,11968,255,982,-488
255,-448,11936,256,642,38
0,-384,11944,0,500,468
0,-424,11888,256,1140,158
0,-440,11856,256,612,-250
255,-472,11960,255,732,-46
255,-424,11968,256,1000,-126
0,-384,11968,256,806,-40
0,-368,11928,256,932,-648
255,-288,11952,256,714,-680
255,-368,12008,0,1018,-112
0,-400,11704,511,282,470
0,-392,11928,512,524,282
255,-376,11992,256,806,32
0,-408,11920,256,834,-228
255,-424,12008,256,534,58
0,-312,11928,511,370,-52
255,-400,11968,0,738,-354
255,-400,11936,511,554,-182
0,-400,11920,511,952,-378
0,-400,11952,255,452,-450
0,-424,11928,256,1014,-748
255,-368,11968,511,296,-646
255,-408,11912,511,850,-510
255,-376,11912,256,318,238
0,-384,11888,255,730,104
255,-376,11960,256,590,216
0,-384,11896,511,630,-146
255,-360,11936,256,530,-178
255,-416,11960,511,1272,-476
255,-432,11904,511,762,-484
255,-328,15672,511,814,-620
255,-312,15688,255,640,-276
255,-344,15688,511,604,-438
255,-360,15688,511,958,-396
0,-384,15976,0,714,-298
0,-552,16088,256,582,-224
0,-600,15816,511,700,-64
255,-416,15672,255,488,238
0,-376,15928,256,158,-8
0,-432,15720,255,982,-16
0,-384,15672,511,312,-314
255,-376,15968,256,634,-8
0,-368,15720,255,744,-46
0,-392,15920,0,754,-296
0,-672,15848,255,1198,-484
0,-368,15632,511,380,-106
255,-272,15680,511,580,-282
0,-336,15960,0,704,-726
255,-376,15904,256,566,-10
0,-312,15656,511,136,172
0,-296,15728,511,800,254
255,-384,15896,0,486,-178
0,-320,15752,511,862,202
0,-304,15912,256,442,-18
0,-360,15696,255,976,-458
255,-624,16088,256,942,-422
0,-360,15704,511,302,-614
0,-312,15672,0,1154,-446
0,-632,16112,256,478,-214
255,-616,16120,0,462,222
511,-512,15688,511,898,320
0,-368,15944,0,736,64
255,-336,15896,256,590,-158
255,-224,3960,256,34,234
255,-192,3960,511,942,-138
255,-192,3976,255,692,-40
0,-224,3960,255,734,-136
0,-232,4024,511,834,-56
255,-224,3968,511,608,-456
255,-248,4000,0,1016,-504
255,-256,3992,256,680,-296
255,-224,3984,511,602,200
255,-216,3976,256,660,338
0,-224,4008,256,774,414
255,-208,3968,511,586,70
0,-176,3968,256,262,206
0,-216,3968,511,892,-226
255,-248,3976,256,706,-336
255,-224,3976,255,750,-402
0,-240,3984,256,816,-766
255,-248,4008,256,830,-416
255,-224,3992,255,760,-412
255,-200,3960,511,612,-446
0,-208,3976,256,534,-152
0,-216,3976,256,1038,84
0,-176,3976,256,392,456
255,-184,3952,256,352,366
0,-200,3960,511,810,-110
-1,-8,3984,511,618,-120
255,-248,3992,511,518,-420
255,-216,4008,511,924,-200
255,-240,3960,255,372,-262
255,-176,3976,256,540,-336
0,-256,4008,256,574,-220
0,-176,3976,511,570,172
0,-232,3984,511,810,282
0,-168,7936,256,304,-484
0,-200,7680,511,1026,-122
255,-184,7992,256,462,366
255,-176,7960,256,834,12
255,-248,7960,0,722,-110
0,-216,7968,256,432,-380
255,-416,8184,256,638,-480
0,-200,7952,256,260,-8
255,-184,7752,511,824,-218
0,-152,7680,255,714,-332
255,-224,7776,511,444,206
0,-192,7952,256,1124,86
255,-216,7944,0,450,42
255,-216,7720,511,1070,-174
255,-192,7760,255,742,-410
255,-144,7936,256,520,-2
255,-416,8168,0,736,-496
0,-176,7712,511,702,-434
0,-200,7768,511,316,-68
0,-184,7712,511,710,-234
255,-168,7992,256,954,-140
0,-208,7960,256,372,-508
255,-192,7680,511,1280,-762
255,-200,7952,256,422,-438
255,-208,7952,256,580,-76
0,-176,8000,256,754,-80
255,-184,7952,0,748,-238
255,-408,8176,256,626,-306
255,-144,7712,511,544,-102
255,-408,7896,511,582,-14
0,-192,8008,256,562,-648
255,-224,7736,511,1084,-662
0,-216,7696,511,582,-476
255,-208,7736,511,874,-206
255,-448,8176,256,370,508
0,-216,7992,256,668,192
0,-408,11936,511,584,-22
0,-376,11896,511,622,302
0,-384,12000,256,796,136
255,-408,11920,0,194,224
255,-360,11904,512,774,-340
255,-368,11872,511,298,-282
0,-384,11984,511,714,-334
255,-408,12000,256,524,-696
255,-440,11920,256,850,-598
0,-400,11912,256,744,-494
255,-408,11904,511,904,-512
255,-400,11968,255,986,92
0,-440,11944,511,570,36
0,-424,11984,256,440,194
0,-416,11896,256,598,-282
255,-416,11960,256,654,-26
0,-440,11960,511,806,-468
255,-472,11936,0,724,-692
255,-424,11920,0,1010,-710
255,-392,11896,256,260,-292
0,-424,11952,256,876,-478
0,-384,11952,511,538,-290
0,-376,11704,511,524,-318
255,-344,11872,256,684,182
255,-352,11920,0,482,474
255,-392,11968,511,1106,286
0,-416,11992,255,628,-190
255,-440,11888,256,680,-388
255,-424,11936,511,930,-396
0,-352,11920,256,666,-440
255,-384,11928,511,820,-730
0,-328,11960,511,976,-684
255,-312,11944,511,612,-164
0,-360,11904,0,1152,302
0,-368,11912,511,-154,432
0,-640,16104,256,782,220
0,-416,15688,511,536,-250
255,-632,16104,0,456,472
0,-344,15704,511,640,110
255,-392,15952,511,950,-100
255,-368,15656,511,924,-254
0,-296,15888,256,878,-466
255,-304,15656,255,738,-482
0,-368,15944,256,584,-292
0,-352,15936,256,788,-318
0,-424,15896,256,786,-236
0,-384,16040,256,520,48
255,-368,15960,256,778,298
0,-312,15688,511,702,226
0,-288,15928,256,570,-214
255,-304,15672,0,914,-14
0,-344,15648,511,424,-418
255,-320,15632,255,714,-324
0,-312,15640,511,662,-722
255,-376,15976,0,1000,-350
0,-304,15976,0,500,-74
0,-352,15648,511,1084,-494
0,-424,15928,0,480,-450
0,-560,16112,512,856,-16
255,-592,15832,255,1018,286
0,-688,15848,511,606,256
0,-344,15640,255,958,182
0,-376,15888,0,968,90
0,-312,15952,512,556,-70
255,-424,15744,511,558,-158
0,-408,15632,511,1082,-436
255,-344,15680,511,392,-282
255,-360,15648,255,886,-482
255,-328,15680,511,592,86
0,-344,15632,511,680,426
0,-392,15640,0,894,26
0,-216,3960,511,670,-410
255,-232,3992,256,780,34
255,-216,4016,256,744,214
0,-240,3976,511,814,-218
255,-200,3976,255,1012,-440
255,-216,3976,0,486,-354
255,-224,3984,256,670,-276
255,-208,3960,256,562,-294
0,-192,3952,256,594,-722
255,-208,3968,255,690,-414
0,-216,3960,511,1100,40
255,-216,3968,256,704,386
255,-232,3976,511,282,466
0,-224,3976,256,1116,-230
255,-248,3968,256,622,250
0,-224,4008,0,476,-26
255,-240,3952,511,532,-12
255,-208,3984,511,318,-286
255,-240,3960,511,642,-626
-1,-8,4000,767,534,-432
0,-232,3992,256,932,-326
0,-208,3976,0,736,-670
0,-248,3984,511,846,-716
255,-256,3992,511,360,-378
0,-232,3976,256,670,84
0,-224,3992,511,870,24
0,-232,3984,256,644,-138
0,-224,3952,0,980,-396
0,-216,3992,511,696,-468
0,-240,3968,512,268,-728
255,-224,3960,0,876,-588
0,-232,3920,255,688,-572
0,-200,3968,256,402,-598
255,-208,4008,0,980,-236
255,-168,7704,511,418,426
0,-160,7984,256,890,-444
0,-176,7984,256,394,-94
255,-184,7712,767,796,310
255,-192,7704,255,984,4
0,-184,7688,511,162,-48
0,-216,7688,255,1240,-130
0,-216,7960,256,802,-502
0,-440,7896,511,538,-306
0,-160,8000,0,760,-618
0,-96,7936,256,788,-816
255,-152,7936,0,508,-314
255,-408,8184,256,864,56
255,-424,8152,0,436,-128
255,-400,7880,511,642,-24
255,-152,7944,256,806,-352
255,-432,7928,511,578,-410
0,-176,7952,256,548,-484
255,-160,7680,255,706,58
0,-184,7696,255,498,96
255,-200,7720,255,762,-134
0,-192,7936,256,526,188
0,-232,7992,256,656,-120
0,-184,7680,255,760,-354
0,-160,7960,256,740,-154
0,-136,7736,255,1018,108
255,-208,7976,256,284,362
0,-192,7944,0,972,28
0,-448,7904,511,924,44
255,-232,7952,256,636,222
0,-408,8184,256,378,-38
0,-168,7968,256,514,-180
0,-168,7680,511,700,-166
0,-408,7888,511,1044,-366
255,-168,7696,511,608,106
0,-344,11896,256,702,292
0,-416,11944,255,496,-618
255,-440,11928,256,810,-464
255,-432,12000,256,706,-404
255,-392,11912,511,538,200
0,-384,11880,256,904,-180
0,-408,11928,256,634,-316
255,-392,11912,256,566,-330
255,-440,11904,256,258,-226
0,-400,11888,255,1174,-712
255,-352,11968,767,800,-624
255,-328,11968,0,948,-466
0,-416,11984,511,586,12
0,-384,11952,256,860,438
0,-480,11960,255,762,74
255,-392,12016,511,440,166
255,-344,11984,511,1128,16
0,-344,11904,0,976,170
255,-384,11944,511,596,-12
255,-392,11920,256,552,-90
0,-440,11968,256,356,-284
255,-424,11976,511,752,-260
255,-376,11952,0,700,-476
255,-464,11904,256,538,-728
255,-392,11968,511,532,-262
0,-408,11976,255,990,-218
255,-440,11928,256,614,2
0,-384,11888,256,604,244
0,-392,11968,256,288,-128
0,-432,12160,256,940,-294
255,-424,11872,767,556,-438
0,-432,11896,255,464,-358
0,-392,11976,511,1008,-432
0,-416,11872,256,838,-462
255,-384,15904,256,890,-216
0,-376,15968,256,294,-408
0,-376,15896,256,1104,-758
255,-544,15840,255,702,-504
255,-408,15616,511,822,-156
255,-344,15896,0,494,110
0,-392,15616,511,418,116
0,-392,15920,0,894,-82
0,-296,15912,256,620,-398
255,-560,16056,0,1246,-360
256,-512,15656,511,136,-262
0,-304,15936,256,814,-344
0,-336,15672,255,930,-316
0,-672,15864,255,508,-50
0,-376,15680,511,760,226
255,-376,15704,511,592,446
0,-312,15632,256,634,-60
255,-624,16080,511,324,100
255,-352,15664,511,746,496
255,-368,15960,0,596,250
255,-384,15648,511,360,-440
255,-432,15680,511,848,-208
0,-360,15704,255,968,-276
0,-376,15688,511,478,-480
0,-288,15712,511,884,-620
255,-344,15688,255,744,-362
0,-360,15904,256,898,-162
255,-336,15984,256,712,32
255,-344,15672,255,748,18
255,-368,15920,256,378,-64
255,-408,15944,0,456,-288
255,-640,16104,256,610,-656
255,-368,15656,511,966,-724
255,-256,3960,511,874,-1002
255,-232,3976,511,520,240
0,-208,3944,0,718,-30
0,-248,4000,511,610,-18
255,-256,3984,0,1012,-218
0,-232,3976,0,462,-332
0,-192,4000,255,1254,-154
0,-224,3952,511,664,350
0,-240,3976,511,604,448
0,-232,3976,256,516,12
0,-208,3984,255,878,66
0,-216,3976,256,878,-244
0,-224,3960,0,758,-46
0,-176,3952,255,510,-662
255,-216,3984,256,868,-726
255,-224,3984,511,680,-526
0,-200,3968,256,858,-124
0,-216,3952,255,200,180
255,-200,3960,256,652,-532
0,-216,3960,256,464,-14
0,-200,3944,256,802,44
255,-200,3952,256,718,214
255,-240,3984,0,766,72
255,-200,3992,256,862,-160
255,-248,4008,511,608,-134
255,-232,3976,0,972,-176
0,-200,3976,256,456,-40
0,-176,3992,511,738,-278
0,-208,3952,0,972,-340
0,-200,3984,256,464,162
0,-232,3968,255,704,408
0,-248,3960,511,156,390
255,-216,3936,255,512,172
255,-240,3976,256,1154,-168
255,-192,3976,511,530,-168
0,-240,7720,255,510,-64
255,-192,7936,256,1130,36
0,-144,7688,255,760,-108
255,-144,7944,256,932,-472
0,-112,7936,256,532,-318
0,-144,7704,255,708,-730
255,-144,7976,256,770,-512
0,-200,7744,511,796,-88
0,-128,7768,511,672,56
0,-128,7744,511,538,170
255,-192,7688,511,1108,-170
0,-224,7752,511,356,-296
0,-448,7896,255,904,-406
0,-120,7936,256,566,-534
0,-176,7696,511,542,-554
255,-208,7736,511,692,-750
0,-192,7680,511,942,-376
0,-136,7728,511,942,-398
255,-192,7736,511,698,-632
255,-136,7712,511,534,-672
255,-200,7720,255,1248,50
0,-248,7976,256,70,504
0,-248,7696,511,660,102
255,-464,8184,256,642,20
255,-456,8120,0,1020,-176
0,-424,7920,255,474,-236
255,-488,8128,256,890,-136
255,-416,7920,511,550,-326
0,-208,7680,511,656,-540
255,-200,7944,256,874,-78
0,-152,7728,511,676,72
255,-152,7696,511,904,200
0,-168,7696,511,518,-222
0,-192,7720,255,962,-248
255,-392,11912,511,1150,296
0,-432,11968,511,790,32
255,-408,11904,511,358,-116
255,-408,11968,255,1234,-380
0,-344,11872,511,174,-296
255,-424,11992,511,1130,-126
0,-344,11936,256,520,-760
255,-424,11888,256,618,-300
0,-400,11856,256,574,-340
255,-416,11952,256,556,170
0,-408,11968,0,718,12
255,-344,11928,511,932,-160
0,-344,11920,511,612,-146
0,-424,11848,512,776,-378
255,-408,11944,256,556,-396
255,-400,11960,256,778,-354
0,-416,11928,767,792,-422
0,-384,11888,0,758,-392
0,-472,11888,256,816,-246
0,-408,11976,511,278,-322
255,-432,11856,0,1002,-728
255,-320,11944,256,684,-298
255,-400,11920,256,624,40
0,-440,11920,256,664,366
0,-440,11960,256,532,134
0,-368,11944,256,454,-106
255,-344,11888,511,798,-244
255,-248,11776,256,736,-272
255,-496,11952,511,360,-438
0,-416,11960,256,882,-380
0,-472,11664,511,842,-468
0,-424,11992,511,424,242
0,-496,11984,256,364,470
0,-368,11904,256,838,466
0,-328,11960,256,378,152
0,-328,15944,256,854,-218
0,-344,15632,767,536,-220
255,-368,15696,255,928,-166
0,-392,15912,256,642,-444
255,-392,15632,511,512,-758
255,-456,15944,511,828,-328
0,-400,15648,511,668,-356
0,-320,15672,255,670,-404
0,-448,15912,256,710,-618
255,-384,15680,255,1224,106
0,-528,15864,511,686,342
255,-368,15640,255,508,362
0,-392,15640,255,936,158
0,-352,15640,511,692,-112
0,-656,16120,0,746,-390
0,-400,15952,0,736,-766
255,-304,15720,511,534,-568
0,-272,15920,256,620,-538
0,-336,15712,256,586,-386
255,-288,15928,256,560,-286
255,-360,15688,511,1088,-768
255,-400,15656,511,346,-306
0,-352,15992,256,1072,14
0,-344,15880,255,498,46
255,-360,15672,767,304,-120
255,-440,15624,511,636,-202
0,-352,15880,0,1268,-126
0,-440,15952,256,106,-100
0,-408,15912,0,954,-456
255,-280,15920,256,936,-628
255,-664,15832,511,336,-408
0,-320,15656,255,1008,-248
0,-352,15688,511,836,34
0,-328,15688,256,334,12
255,-224,3992,256,520,174
0,-192,3976,0,456,8
255,-208,3944,256,876,258
0,-256,4008,0,710,236
255,-208,3960,511,404,88
0,-232,4008,256,692,-46
255,-192,3952,255,942,100
0,-224,3992,256,392,-170
0,-200,3976,511,842,-36
0,-240,3960,511,276,-442
0,-240,4008,511,1064,-200
0,-232,3984,767,310,-30
255,-248,3968,255,934,314
0,-208,3976,256,796,182
0,-232,3976,256,808,-252
0,-224,3968,256,434,-388
255,-216,3952,767,264,330
0,-240,4000,511,616,158
0,-240,4000,255,428,-50
255,-232,3968,0,720,-104
255,-216,3944,256,604,-478
255,-208,3984,0,1194,-402
0,-240,3968,512,528,-472
0,-200,3960,255,396,-134
0,-232,4000,511,796,140
255,-176,3968,256,122,438
255,-232,3984,511,940,108
0,-224,4000,0,948,-68
0,-232,3976,511,336,-364
255,-224,3944,256,650,-316
255,-232,3944,0,958,-500
255,-208,3976,256,566,-724
0,-176,3960,255,1012,-690
255,-160,7952,256,962,-82
0,-432,7920,255,490,-368
255,-192,7736,511,1224,-488
0,-144,7960,0,758,-146
0,-464,7920,511,588,78
255,-144,7952,256,660,438
0,-384,7920,511,522,66
0,-448,8152,0,438,-94
0,-200,7696,511,650,-466
0,-192,7720,255,850,-188
0,-168,7960,256,606,-386
255,-440,8152,256,606,-340
255,-160,7704,511,518,-440
255,-176,7992,256,932,238
0,-160,7712,511,62,230
255,-104,7688,511,832,12
255,-416,7912,511,456,-90
255,-424,7928,511,976,234
0,-208,7688,511,78,476
255,-176,7992,256,786,420
0,-224,7720,255,750,-154
255,-232,7960,256,904,-254
255,-168,7952,256,286,-204
255,-200,7712,511,788,-178
0,-160,7944,0,1008,-734
255,-152,7992,256,382,-306
255,-184,7680,511,812,-254
255,-216,7696,511,640,122
255,-152,7760,511,628,96
0,-144,7968,256,592,-244
255,-144,7976,0,728,-162
255,-168,7704,511,794,176
0,-176,7984,256,564,30
0,-424,11968,511,310,-290
255,-392,11992,256,872,-466
255,-376,11928,511,524,-448
0,-352,12008,256,520,-384
0,-424,11936,511,634,-618
255,-416,11952,255,1268,-422
0,-352,11928,256,338,-82
255,-392,11936,256,420,480
0,-368,11984,255,698,114
255,-392,12000,511,888,-44
255,-368,11960,256,476,-500
255,-344,11952,511,880,-366
255,-376,11968,511,580,-472
255,-376,11976,0,718,-314
0,-392,11952,256,1000,-690
0,-480,11904,256,930,-392
255,-440,11960,0,806,28
0,-376,11928,511,456,202
255,-352,11920,256,606,-354
255,-384,11912,256,900,-158
255,-136,11776,255,494,166
0,-440,11960,511,346,156
0,-440,11976,256,1130,-124
0,-312,11952,256,46,-380
255,-416,11936,511,838,-268
255,-448,11976,256,622,-28
0,-344,11912,256,268,-158
0,-432,11928,511,1056,-714
255,-96,11776,511,432,-174
0,-408,11984,255,744,142
255,-448,11904,256,586,112
255,-360,11968,256,518,-174
255,-440,11896,256,348,-10
255,-368,11920,256,1068,-132
255,-408,11936,511,604,-428
255,-312,15648,511,540,-108
255,-376,15640,255,422,-60
255,-376,15656,511,1008,-430
255,-312,15928,0,718,-46
0,-384,15944,256,298,-168
0,-376,15688,0,950,-424
255,-408,15928,512,560,-86
0,-344,15976,256,620,170
0,-376,15896,256,810,16
255,-408,15616,256,386,42
255,-296,15736,511,560,-124
255,-432,16024,511,826,-6
256,-512,15704,0,384,-166
0,-280,15712,511,834,-70
0,-344,15752,511,806,-658
255,-400,15672,511,334,-430
0,-440,15928,256,820,-254
255,-328,15640,511,642,-470
255,-328,15872,0,726,-398
255,-376,15688,255,742,-30
0,-440,15872,0,664,234
0,-320,15912,256,466,154
255,-472,15632,255,746,-106
255,-360,15616,511,612,-128
255,-392,15944,256,818,-138
255,-392,15920,0,506,-198
255,-440,15880,0,1022,-410
0,-392,15952,256,680,-504
0,-328,15712,255,1236,-356
0,-656,15792,511,358,142
0,-432,15696,511,344,112
255,-352,15704,511,272,230
0,-208,3992,256,290,-42
0,-240,3968,511,638,506
0,-248,3992,0,218,378
0,-224,3984,255,1468,78
0,-216,3960,511,352,-94
255,-192,3944,511,276,-72
0,-200,3968,256,1214,-486
255,-208,4032,511,628,-766
255,-248,3944,511,724,-628
0,-232,3984,256,808,-564
0,-248,3984,256,752,-152
0,-200,3984,256,280,224
0,-216,3960,511,360,-68
255,-208,3976,767,546,-414
255,-216,3976,256,770,-724
255,-200,3976,511,806,-394
0,-200,3984,512,256,-584
255,-216,3968,511,792,-402
0,-216,3976,256,722,12
0,-240,3992,0,960,-224
255,-232,3968,0,756,-400
255,-176,3992,511,726,-282
255,-208,3984,511,906,-116
255,-224,3960,511,676,62
255,-192,3968,256,564,716
0,-256,3952,511,886,238
255,-240,3976,511,332,100
0,-248,3952,511,580,210
0,-216,3984,256,800,-500
255,-240,3968,0,712,-302
255,-208,3968,255,742,-382
255,-200,3992,256,548,-708
0,-208,3968,256,558,-422
0,-216,3960,256,1272,-220
255,-216,3976,256,556,38
0,-200,7712,511,540,-340
255,-184,7952,256,700,-48
255,-232,7728,255,964,42
255,-200,7960,256,656,92
255,-440,7928,511,548,-242
255,-144,7688,511,1046,-244
0,-200,7936,256,594,-462
0,-480,7896,511,538,-362
255,-168,7712,511,572,-328
255,-168,7696,255,730,-386
0,-184,7720,511,1256,-488
0,-152,7696,255,462,4
255,-472,7928,511,588,276
0,-208,7712,255,1230,-208
255,-184,7704,511,436,-26
255,-440,7848,255,868,-200
255,-224,7952,256,814,232
0,-424,7920,511,372,-42
0,-376,7904,255,1172,-220
0,-400,7912,767,338,-304
0,-208,7968,256,832,-146
0,-184,7680,255,1200,-318
255,-208,7696,511,516,-510
255,-184,7944,256,620,-226
255,-184,7704,511,552,118
255,-192,7704,511,568,78
255,-432,8168,256,714,228
0,-144,7704,511,532,94
0,-208,8000,0,980,-240
255,-184,7688,511,572,-254
0,-216,7960,256,608,-60
0,-208,7704,255,934,-376
0,-184,7680,511,404,-300
255,-376,11896,0,488,-658
255,-368,12232,256,630,-676
255,-400,11984,511,594,-584
0,-400,11920,0,1520,-404
255,-408,11936,511,12,98
255,-360,11984,256,526,92
255,-392,11936,255,1264,-38
0,-424,11968,511,50,-60
255,-432,11936,256,800,-322
255,-408,11952,256,688,-420
255,-400,11984,255,928,-452
255,-376,11888,511,1142,-958
255,-368,11968,256,314,-390
0,-376,11928,256,1096,-224
255,-456,11880,511,280,200
255,-360,11880,256,692,124
0,-400,11984,0,580,-140
255,-368,11968,511,636,-146
0,-432,11912,256,262,156
0,-456,11912,256,598,-198
255,-360,11928,511,784,-222
0,-432,11960,255,738,-220
255,-408,11928,255,636,-132
255,-368,11904,256,632,-276
255,-416,11896,256,602,-374
0,-384,11976,256,648,-300
255,-376,11888,256,276,-6
0,-384,11984,256,836,220
0,-392,11976,256,636,-62
255,-440,11920,0,508,-34
255,-392,11984,511,646,-106
0,-288,11936,255,902,-506
255,-400,11880,256,634,-494
255,-416,12192,0,720,-160
0,-472,15912,256,874,-240
0,-304,15680,511,436,-102
0,-416,15392,511,802,-148
0,-464,15640,256,754,-414
0,-320,15712,255,724,-294
255,-312,15624,511,806,386
0,-384,15928,256,376,466
0,-328,15712,511,654,74
255,-344,15976,256,944,-124
0,-616,16120,0,678,-500
255,-304,15632,511,646,-280
255,-320,15672,511,610,-428
255,-360,15656,511,822,-426
0,-336,15920,256,942,-472
0,-360,15648,511,554,-216
255,-464,16008,256,882,264
0,-672,16104,256,580,292
0,-664,15864,511,560,-650
255,-392,15952,256,1074,-232
0,-352,15664,511,372,-166
255,-672,15856,255,1018,-160
0,-288,15672,511,608,-458
255,-336,15680,255,654,-322
0,-296,15640,511,728,-476
255,-352,15920,256,768,-434
0,-400,15896,256,280,-434
255,-344,15680,255,1236,-490
0,-608,15856,511,648,240
0,-408,15648,0,720,338
255,-312,15656,511,600,508
0,-488,15912,256,458,222
255,-384,15920,0,942,-116
255,-376,15952,256,336,-462
255,-328,15672,511,546,-292
255,-216,3984,0,734,-90
255,-232,3992,256,566,-416
255,-200,4000,255,712,-638
255,-224,3992,256,654,-692
255,-200,3944,256,618,-672
0,-224,3992,511,672,-580
255,-256,3944,255,1250,-506
0,-232,3968,256,616,204
0,-224,3984,256,962,18
0,-232,3952,255,460,-38
0,-224,3968,256,606,-354
255,-224,3976,256,676,-474
255,-240,3992,0,660,-70
0,-256,3984,511,690,-278
0,-200,3968,511,470,-294
255,-200,3968,511,898,-344
255,-216,3984,511,940,-674
255,-248,3984,255,928,-388
0,-216,3960,256,348,-828
255,-216,3992,0,1166,-650
255,-208,3968,511,596,-2
255,-208,3960,256,602,-106
255,-200,3976,511,302,-158
0,-208,3976,256,1234,-242
0,-224,3984,511,848,-502
0,-224,3960,256,620,-424
255,-200,3984,256,928,-450
0,-200,3960,256,554,-860
255,-216,3976,256,648,-534
255,-192,3952,256,670,-150
255,-208,3984,256,822,12
255,-224,3976,256,558,240
255,-184,3960,512,576,-112
255,-144,7728,511,350,-46
0,-176,7696,511,70,232
255,-200,7720,511,930,158
0,-472,8136,256,526,-94
255,-200,7752,511,990,-76
255,-256,7728,255,502,-338
255,-456,8184,0,910,-34
0,-224,7744,511,360,-670
255,-192,7992,256,1166,-442
0,-168,8000,0,704,-246
0,-416,7920,255,670,98
0,-136,7704,511,368,174
0,-168,7728,511,796,-152
255,-160,7680,255,926,-690
255,-160,7720,511,588,-394
255,-120,7976,256,932,-768
255,-152,8016,0,718,-626
0,-464,8136,256,872,-506
255,-240,7720,511,554,-82
0,-448,7912,511,668,-240
255,-184,7960,0,972,-108
0,-176,7712,511,622,-148
0,-240,7944,0,756,482
255,-176,7712,511,368,732
255,-208,8016,256,842,280
255,-160,8016,0,426,140
0,-152,7728,511,926,-206
255,-216,7720,255,1008,-380
255,-136,7736,511,686,-110
0,-176,7712,511,660,-762
255,-200,7720,511,774,-698
0,-216,7704,511,848,-496
0,-192,7688,511,334,42
0,-208,7744,511,716,54
0,-144,7760,255,962,100
0,-432,11928,511,690,-156
255,-376,11944,511,664,-276
255,-360,11904,511,258,34
0,-328,11952,511,842,-14
255,-312,11968,256,132,-36
255,-408,11896,256,1052,-240
0,-400,11952,256,626,-220
0,-384,11936,511,936,-384
255,-320,12000,0,764,-466
255,-392,11968,256,840,-14
255,-368,11960,256,724,376
255,-368,12008,511,658,502
255,-376,11888,0,440,196
0,-416,11976,255,648,-18
0,-408,11968,256,590,-448
255,-432,11920,511,802,-708
255,-384,11944,256,666,-644
255,-360,11936,256,884,-600
0,-408,11928,0,450,-550
0,-456,11680,511,1012,-110
0,-384,11984,256,630,312
0,-440,11888,256,662,-642
255,-472,12000,256,572,-358
255,-352,11912,255,704,106
0,-432,11888,256,292,366
0,-416,11960,511,864,38
0,-384,12000,511,654,-148
0,-360,11960,256,546,-290
255,-384,11960,256,496,-294
255,-416,11928,511,782,-394
255,-424,11936,256,282,-370
255,-400,11984,511,1178,-190
0,-464,11904,767,778,36
0,-344,11960,256,294,494
255,-368,11912,256,660,76
0,-440,11912,0,942,-228
0,-352,11920,256,758,-132
0,-288,15696,0,682,264
0,-360,15656,511,726,-246
0,-560,16120,0,1248,-96
0,-296,15656,767,-128,-8
0,-592,16112,256,1154,-166
0,-360,15680,255,722,-340
255,-312,15904,256,716,-72
0,-328,15944,256,522,-454
0,-320,15688,256,870,-162
255,-680,15864,511,712,140
0,-416,15888,256,582,-350
255,-352,15880,256,588,-66
0,-376,15648,511,580,-408
0,-344,15696,511,794,-506
0,-376,15896,256,350,-350
0,-376,15952,256,784,-720
255,-376,15944,256,552,-650
255,-368,15656,255,724,-84
0,-360,15912,256,894,-496
255,-328,15656,255,956,-320
0,-352,15936,256,858,-280
255,-312,15904,256,320,-22
0,-368,15904,256,866,158
0,-296,15696,256,332,168
0,-432,15880,256,276,-130
255,-448,15968,256,818,-62
0,-312,15680,511,432,-332
0,-408,15944,255,558,-158
0,-392,15696,511,954,-366
255,-576,15856,255,972,-594
255,-416,15688,511,830,-490
0,-336,15920,256,838,268
0,-464,15920,256,594,328
255,-560,15824,255,1020,170
255,-200,3992,511,260,-168
0,-248,3976,255,890,70
255,-208,3968,256,302,48
0,-256,3976,256,718,246
0,-248,3976,0,506,-224
0,-248,3960,511,794,-494
255,-240,3968,0,684,-448
255,-200,3984,511,300,-736
255,-224,3984,255,1242,-692
255,-208,3992,511,1192,-204
255,-208,3984,0,506,304
0,-208,4000,256,976,470
0,-232,3992,255,742,62
255,-240,3952,511,928,42
0,-200,3968,255,692,-14
255,-240,3968,511,278,-118
0,-224,3960,511,616,-288
255,-232,3976,0,762,-420
0,-248,3976,512,786,-208
0,-208,4000,255,730,-128
255,-224,3984,256,534,-426
0,-208,3960,256,934,-606
0,-256,3960,256,558,-338
255,-248,3976,255,948,-210
255,-240,3984,256,490,-148
255,-216,3976,511,528,234
0,-168,3952,256,610,-230
0,-208,3976,256,640,-52
0,-200,3952,256,1088,-496
255,-184,3984,511,584,-512
255,-208,3960,511,1024,-694
255,-200,4000,256,634,-358
0,-224,3968,511,924,-238
0,-208,3968,256,572,376
0,-208,3984,511,278,472
255,-200,3976,256,896,82
0,-232,3952,0,742,250
0,-464,8184,256,820,-494
255,-448,8184,256,636,-78
0,-184,7960,256,770,-308
255,-192,7680,255,638,-322
255,-144,7952,0,748,-486
0,-112,7688,511,872,-662
0,-200,7728,511,582,-538
255,-152,7712,511,608,-524
255,-432,8128,511,414,184
0,-208,7720,767,768,256
0,-168,7720,255,710,372
0,-176,7712,255,456,238
0,-208,7704,511,866,-264
255,-216,7688,255,702,-372
255,-104,7768,511,436,-520
255,-136,7680,511,1042,-370
0,-464,7920,255,160,-574
255,-232,7680,511,668,-690
255,-216,7960,256,1096,94
255,-184,7720,511,90,332
0,-200,7944,511,988,-422
255,-392,8184,256,528,50
0,-416,8176,0,992,304
0,-104,7752,511,514,36
0,-208,7968,256,856,-384
0,-408,8176,0,640,-360
255,-152,7680,511,576,-344
0,-208,7944,256,452,-266
0,-184,7944,0,980,-574
255,-192,7712,511,604,-518
255,-472,7896,511,348,-28
255,-392,7928,255,956,404
0,-424,7912,511,460,362
0,-424,7912,511,880,62
0,-248,7704,511,344,150
0,-184,7728,255,674,-348
255,-384,11928,511,686,-420
0,-424,11992,511,990,38
0,-456,11928,0,510,-18
255,-392,11672,511,648,-198
0,-424,11600,511,558,-324
0,-440,11976,256,900,-768
255,-408,11912,511,602,-362
0,-424,11896,255,752,-408
255,-432,11944,256,708,142
0,-416,11888,0,660,116
255,-432,11904,511,582,188
0,-432,11952,256,814,-212
255,-432,11896,256,684,-148
255,-376,11952,256,552,160
0,-400,11696,255,1000,-218
255,-440,11888,511,622,-472
255,-384,11976,511,522,-352
255,-416,11848,256,610,250
0,-408,11960,256,860,-732
255,-376,12200,256,570,-666
255,-440,11960,511,1242,-80
0,-440,12008,0,746,112
0,-432,11968,256,308,98
0,-376,11936,256,710,-180
0,-352,11936,256,768,-448
255,-376,11928,256,612,-494
255,-376,11912,511,810,-92
0,-472,11992,511,354,-84
0,-344,11912,256,644,-420
255,-488,11896,511,906,-288
0,-392,11904,511,410,-204
255,-448,11944,255,712,496
0,-432,11944,256,678,250
255,-440,11960,0,634,122
0,-352,11968,511,610,136
0,-384,15952,0,220,492
255,-456,15704,511,816,114
256,-480,15936,0,970,-56
0,-320,15872,256,478,250
256,-488,15616,511,682,-72
0,-408,15944,256,816,-164
255,-544,15840,256,512,-460
255,-384,15880,256,598,-300
0,-336,15648,511,658,-72
255,-632,16120,256,886,50
255,-352,15704,255,756,2
255,-424,15984,256,640,-82
255,-312,15736,256,546,-262
255,-560,15808,511,978,-438
255,-400,15640,511,572,-382
0,-464,15960,256,834,-558
255,-384,15688,511,308,-704
0,-336,15648,511,904,-280
0,-328,15688,511,342,-426
255,-392,15696,256,862,-462
255,-320,15648,255,716,-204
255,-312,15632,256,982,470
0,-312,15664,0,202,466
0,-368,15888,256,710,44
0,-320,15720,511,842,-74
255,-336,15640,511,284,-22
255,-736,16088,256,838,-200
0,-376,15664,256,618,-146
255,-400,15648,511,910,-432
255,-408,15688,255,490,-648
511,-496,15664,256,784,-284
255,-328,15648,511,938,102
255,-368,15928,0,474,508
0,-384,15624,511,700,34
0,-168,3992,256,1152,-224
255,-224,4008,255,212,134
0,-224,3976,511,1204,10
0,-240,4008,256,418,-52
255,-216,3984,255,718,-228
255,-200,3992,511,1166,-494
255,-224,3968,511,424,-450
0,-216,3968,0,998,-596
255,-200,3936,511,516,-752
0,-192,3960,256,998,-642
255,-240,3992,256,298,-206
255,-168,3976,511,596,-22
0,-224,3976,256,600,-106
0,-240,4000,256,294,-338
0,-216,3952,255,696,-92
255,-256,3968,256,974,-170
255,-192,3968,511,576,-446
255,-208,4000,511,532,-166
0,-232,3960,256,540,-414
0,-208,3952,256,550,-350
255,-232,3936,255,722,-356
255,-192,3952,511,524,-350
0,-224,3992,256,596,-212
255,-200,3952,255,974,110
255,-224,4000,256,484,48
0,-192,3976,255,894,40
255,-240,4008,256,716,-138
0,-240,3984,256,322,-148
0,-224,3944,511,546,-370
0,-208,3984,512,1086,-500
0,-256,3992,0,1000,-482
255,-208,3984,256,270,-648
255,-240,3976,256,900,-222
255,-224,7688,511,106,-356
255,-200,7984,0,1178,-462
0,-384,8160,512,530,-32
0,-168,7936,0,392,442
0,-176,7968,256,668,756
0,-168,7936,256,388,138
0,-392,8168,0,998,20
0,-496,8176,256,328,486
0,-184,7936,256,608,-224
255,-184,7736,511,962,-220
0,-184,7704,255,1008,-494
0,-168,7720,511,428,248
0,-256,7976,256,952,68
255,-160,7960,256,630,274
255,-400,8176,256,282,192
0,-184,7952,256,1094,-70
0,-216,7976,256,256,-142
0,-200,7752,511,668,-100
255,-128,7936,256,860,-188
0,-160,7752,511,582,200
0,-184,7704,255,510,-36
0,-408,7920,511,866,-260
255,-152,7720,511,320,-364
255,-144,7696,511,1200,-712
255,-224,7696,511,624,-274
0,-400,7920,511,668,160
255,-184,7944,256,550,468
255,-160,7736,255,762,18
255,-208,7968,256,568,2
0,-152,7968,256,858,-180
255,-200,7936,256,798,-202
255,-480,8176,256,598,-486
255,-192,7704,511,620,-316
255,-224,7680,511,296,-126
0,-168,7944,256,1086,158
0,-400,11944,511,814,-768
255,-344,11920,256,926,-604
255,-424,11880,256,616,-370
0,-368,11968,511,592,-74
255,-408,11952,256,418,252
255,-376,11912,256,622,450
0,-432,11968,0,724,-64
255,-400,11896,256,690,-280
255,-424,11920,256,518,-352
0,-448,11888,0,722,-416
0,-352,11912,511,786,-372
255,-360,11936,256,594,-394
255,-392,11920,511,558,-120
255,-384,11968,0,494,262
0,-472,11960,511,1112,412
255,-376,11944,255,500,132
255,-296,11912,512,562,126
255,-392,11912,255,1006,118
0,-416,11920,256,540,-84
255,-360,11968,511,862,-474
255,-480,11944,256,1000,-162
0,-424,11896,0,508,-118
0,-360,11968,256,838,-382
0,-304,11968,256,632,-418
0,-400,11952,511,22,-536
255,-384,11960,256,1150,-18
0,-384,11984,0,436,-84
255,-456,11984,511,538,210
255,-368,11872,511,544,246
0,-416,11936,255,956,-404
255,-384,11952,256,350,-278
255,-448,11952,256,814,-508
0,-376,11896,256,518,-608
255,-392,11920,256,794,-750
0,-400,15688,511,684,-146
255,-560,16064,256,696,-16
255,-376,15712,511,900,-392
0,-368,15768,511,542,-594
255,-432,15624,511,574,-278
256,-512,15640,511,412,230
0,-336,15704,255,1004,24
255,-400,15904,256,380,-38
0,-416,15928,511,572,-392
255,-616,16104,256,702,-272
255,-408,15936,256,528,-58
0,-344,15688,511,1000,-306
255,-600,16088,256,580,-632
0,-288,15624,511,906,-494
0,-376,15936,256,666,224
0,-640,15824,511,750,152
0,-424,15656,511,610,18
255,-360,15920,0,742,-472
0,-280,15640,767,1070,102
0,-336,15888,0,116,248
255,-392,15696,767,528,-32
0,-344,15936,0,738,-132
0,-368,15720,255,724,-72
0,-360,15760,511,650,-126
0,-376,15904,0,940,-382
0,-360,15640,511,908,-504
0,-280,15928,256,370,-298
0,-576,15808,511,606,78
0,-376,15896,256,560,374
0,-336,15744,511,296,168
255,-672,15864,0,690,-252
0,-288,15640,511,1108,-458
255,-320,15888,256,294,-510
0,-248,3984,255,910,202
0,-224,3960,511,78,-94
255,-192,3960,256,598,-338
255,-200,4000,256,804,-372
0,-216,3984,256,630,-446
255,-216,4000,0,1010,-582
255,-208,4016,511,336,-568
0,-192,3984,511,866,50
0,-168,3960,256,570,334
0,-256,3976,256,720,292
0,-240,3984,256,776,6
0,-232,3976,511,634,-364
255,-216,3968,256,584,-432
0,-240,3952,255,1012,-756
0,-224,3984,511,396,-552
0,-208,3960,255,1172,-732
255,-208,3976,512,18,-424
255,-216,3976,256,1176,-98
0,-208,4000,511,700,-88
0,-176,3968,256,776,-2
0,-192,3976,256,278,4
0,-208,4008,511,892,458
255,-184,3952,511,586,40
255,-208,3976,256,804,-156
255,-224,4000,256,630,-96
0,-232,3984,256,104,-394
0,-208,3976,256,1370,-440
255,-232,3992,256,334,-362
255,-200,3992,255,990,-418
0,-224,3976,511,702,-18
0,-192,3960,256,544,-218
255,-192,3984,256,518,414
0,-208,3976,256,182,-638
255,-240,3984,511,162,76
0,-184,7688,767,264,158
255,-440,8168,0,478,220
255,-144,7944,0,944,12
0,-232,7976,256,486,-100
0,-200,7776,511,256,-258
255,-168,8008,256,824,-424
255,-224,7736,511,444,-334
255,-200,7688,255,688,-324
0,-200,7952,512,264,-398
255,-184,7704,511,920,268
0,-128,7696,511,394,450
0,-160,7936,256,512,108
0,-440,7888,255,1022,-240
255,-184,7968,256,322,-496
255,-192,7976,256,604,-286
255,-152,7960,0,706,-148
255,-176,7680,511,356,-294
255,-184,7736,511,286,-12
255,-376,7920,511,1114,-246
255,-144,8008,256,540,-222
0,-472,8160,256,918,-444
255,-152,7976,256,420,-76
255,-208,7736,511,646,196
255,-176,7680,255,378,186
255,-96,7992,256,686,-152
255,-216,7704,511,898,-70
255,-208,7712,511,338,-374
255,-368,7896,511,818,-330
255,-152,7728,511,586,-562
255,-200,7952,0,468,-526
0,-160,7968,256,640,-620
255,-192,8032,256,796,-56
255,-232,7704,511,186,202
0,-456,11928,511,1148,-252
255,-384,11904,511,544,-290
255,-488,11976,255,372,-24
255,-408,11928,255,728,-142
255,-320,11696,511,814,-62
255,-456,11976,255,222,-34
0,-400,11976,256,1090,-678
255,-432,11952,511,562,-718
255,-352,11856,0,948,-356
255,-384,11976,511,882,-760
255,-376,11848,0,484,-740
255,-368,11960,511,780,-262
0,-432,11848,256,354,110
0,-448,11896,511,858,166
255,-416,11960,255,698,-60
255,-416,11920,256,882,-510
255,-376,11920,256,310,-4
0,-408,11920,256,882,-396
0,-384,11968,256,716,-126
255,-384,11888,255,930,-86
0,-360,11944,256,886,-224
0,-344,11904,256,852,-250
0,-424,11928,256,644,-288
0,-376,11880,511,556,-260
255,-392,11960,0,748,-180
255,-352,11944,256,1112,2
255,-408,11888,256,450,18
0,-472,11944,0,902,-438
255,-456,11984,256,634,-452
255,-408,11976,256,590,-376
0,-344,12240,256,562,-356
255,-416,11928,511,652,-612
255,-384,11904,0,1022,-648
255,-400,11920,256,592,-8
0,-344,11912,0,408,222
255,-328,15944,256,834,88
255,-288,15712,511,636,-170
255,-368,15688,511,660,122
0,-296,15920,256,524,276
0,-400,15928,256,362,478
255,-336,15896,0,674,66
0,-416,15672,256,970,-42
255,-520,16112,0,504,122
255,-344,15752,255,494,-90
0,-416,15704,511,520,-524
255,-288,15968,256,988,-742
255,-368,15752,511,806,-362
255,-424,15672,255,914,282
0,-360,15640,511,596,288
0,-408,15944,0,762,-22
255,-344,15712,511,296,-68
0,-416,15672,511,1170,-190
255,-368,15776,767,100,-318
255,-376,15664,0,1202,-382
255,-448,15744,511,502,-330
0,-344,15632,511,542,-348
0,-616,15800,511,392,-412
255,-392,15704,255,1136,-400
0,-368,15688,511,886,-762
255,-320,15720,511,644,-550
255,-408,15704,511,324,-50
255,-376,15648,511,826,110
0,-264,15616,0,638,-138
0,-328,15640,511,652,-198
0,-400,15640,0,680,-474
255,-320,15680,256,900,-404
0,-304,16000,512,258,-382
0,-384,15664,255,934,-1022
255,-328,15640,511,578,-560
255,-424,15952,0,686,136
0,-360,15632,511,600,244
0,-400,15928,256,416,198
255,-240,3984,256,586,-90
255,-240,3928,256,630,-208
255,-216,3968,511,708,-136
255,-184,4000,0,684,-196
0,-224,3984,511,736,-418
255,-240,3984,256,1222,-476
255,-208,3976,255,364,-456
0,-208,3984,511,1162,-372
255,-208,3960,256,624,-700
255,-240,3968,511,828,-478
0,-192,3960,256,604,-160
255,-216,3984,256,1150,112
255,-208,3976,255,242,170
255,-240,3968,511,1086,16
0,-216,4024,511,840,-52
0,-176,3960,511,80,-150
0,-208,3984,255,1258,-458
255,-232,3968,511,898,-340
255,-224,3984,256,660,-2
0,-248,3944,511,136,-326
255,-224,3984,511,534,-542
-1,-16,3968,511,910,-672
255,-224,3976,255,1132,-430
0,-216,3960,256,244,222
0,-184,3976,256,900,578
0,-232,4000,511,588,12
0,-224,3968,256,628,-492
255,-248,3952,256,1102,-406
255,-224,4008,511,184,-350
0,-208,3992,0,1006,-98
0,-192,3976,511,966,-330
255,-192,3968,0,700,-186
0,-216,4000,512,276,232
0,-192,3960,256,768,208
0,-160,7944,256,502,-560
0,-192,7960,256,786,-594
0,-176,7952,256,278,-106
0,-200,7736,511,620,98
255,-208,7728,255,1012,-176
255,-160,7960,256,856,-228
0,-176,7752,511,668,-184
0,-144,7736,511,952,-370
255,-464,7912,511,574,-464
255,-200,7728,0,582,-268
0,-192,7688,511,506,-558
0,-472,7896,255,934,-102
0,-208,8000,256,276,108
255,-464,8176,256,988,300
0,-192,7944,0,976,0
0,-424,7928,511,638,142
255,-176,7952,256,512,24
0,-184,7680,511,638,138
0,-424,7928,511,612,-232
0,-232,7832,255,950,-192
0,-152,7696,255,740,-374
255,-184,7936,256,380,-332
255,-120,7728,511,820,-332
255,-448,7920,255,658,-702
255,-184,7960,256,820,-510
255,-168,7936,256,330,136
0,-208,7688,255,936,126
255,-224,7688,511,988,-256
0,-200,7728,511,516,-316
255,-248,7984,256,360,-270
0,-200,7720,511,590,-456
0,-152,7696,255,736,-276
0,-144,8008,256,1096,-752
0,-144,7688,511,544,-472
0,-392,11952,511,808,32
255,-440,11928,511,552,-376
255,-416,11936,256,272,-708
255,-424,11976,0,954,-426
255,-312,11704,511,918,-188
255,-408,11944,256,296,498
0,-480,11872,256,816,-46
255,-432,11952,0,704,-432
255,-384,11888,511,556,-316
255,-392,11976,511,604,-302
0,-416,11896,0,948,-420
255,-408,11824,512,270,-636
255,-440,11904,256,800,-426
0,-432,12024,0,764,-92
0,-400,11896,511,348,12
0,-392,11920,0,1006,126
0,-392,11856,511,544,-226
255,-368,11920,511,420,264
0,-424,11912,256,556,120
255,-392,11944,256,656,-118
255,-400,11888,511,808,-428
255,-392,11728,511,256,-648
255,-368,11888,256,908,-748
255,-360,11912,511,544,-384
0,-408,11880,0,674,-658
0,-336,11936,511,840,-404
255,-416,12008,511,540,250
0,-424,11952,256,354,194
255,-424,11864,256,862,130
0,-416,11920,511,894,116
255,-376,11936,255,982,-244
0,-392,11888,256,732,-486
255,-280,15648,511,558,198
0,-432,15936,256,388,240
0,-312,15712,511,784,-8
0,-368,15872,511,582,-380
255,-408,15640,511,616,-36
0,-376,15680,255,732,-296
0,-360,15968,0,736,-68
0,-368,15720,511,990,168
255,-576,16088,0,396,368
0,-376,15696,255,690,58
255,-344,15656,511,1156,-162
255,-360,15920,256,46,-24
255,-368,15904,256,862,-172
0,-400,15712,511,584,-232
0,-424,15672,511,456,-162
0,-344,15912,256,1128,-310
0,-392,15880,0,416,-350
255,-352,15992,0,762,-154
255,-392,15696,511,1120,-472
255,-280,15928,0,702,-78
0,-408,15672,511,572,214
255,-400,15912,256,546,328
0,-608,15840,511,734,202
255,-328,15664,511,622,38
0,-296,15696,511,892,-124
255,-392,15712,256,640,-490
255,-400,15664,255,726,-488
255,-312,15920,256,1078,-434
0,-328,15640,255,50,-568
255,-528,15856,511,1066,-282
255,-416,15640,511,372,52
0,-368,15672,0,1004,450
0,-384,15688,511,626,462
255,-232,3984,0,970,-406
255,-232,3984,511,802,48
255,-216,3952,256,304,176
255,-248,3984,511,690,-238
255,-208,3984,511,1098,-148
255,-232,3952,512,28,-138
0,-224,3968,255,488,-28
0,-224,3992,511,1094,-366
255,-208,3992,255,478,-450
0,-216,3960,256,852,252
0,-208,3960,256,978,22
255,-240,3968,255,358,88
0,-232,3984,511,870,218
0,-232,4000,255,246,-88
255,-232,3984,256,616,-108
255,-232,3960,256,1186,-230
255,-224,4000,0,450,-226
0,-208,3976,511,1386,-216
255,-216,3960,256,390,-202
255,-200,3952,511,344,-80
255,-232,3968,255,998,-370
255,-248,3960,511,522,-326
255,-240,3984,256,584,234
0,-248,3968,256,522,438
0,-232,3968,256,668,286
255,-240,3976,256,854,392
0,-216,4008,511,516,72
0,-200,3976,256,856,-210
255,-208,3992,256,876,-96
255,-208,3960,256,602,-476
255,-224,3984,256,362,-330
0,-216,3944,256,924,-734
255,-216,3968,256,604,-24
255,-408,8160,256,622,-302
0,-136,7688,255,702,-414
0,-152,7680,511,642,-160
255,-208,7712,511,544,40
255,-224,7984,0,988,408
0,-152,7688,511,672,38
255,-152,7952,256,592,66
0,-144,7728,511,1048,-194
255,-432,8176,256,130,90
0,-192,7720,511,1364,-248
255,-128,7728,511,658,-146
0,-168,7704,511,608,-318
255,-400,8176,0,1154,30
255,-160,7704,511,292,276
255,-160,7680,511,872,290
-256,-16,7936,0,750,-22
255,-192,7952,256,628,-176
255,-168,7760,511,514,216
0,-176,7720,511,200,146
0,-136,7736,511,1034,-162
255,-144,7720,511,586,-196
255,-168,7736,511,920,-136
255,-160,7936,0,368,-268
255,-176,7696,511,932,-468
0,-176,7712,511,576,-230
0,-216,7680,255,688,126
0,-208,7960,256,548,438
0,-144,7728,511,776,28
0,-416,8184,0,1012,-210
0,-192,7992,256,328,-490
0,-176,7744,511,1096,-426
255,-224,7944,256,316,-294
255,-160,7744,511,962,-480
255,-384,11912,256,844,-410
0,-432,11992,255,716,-464
255,-408,11904,0,748,-402
255,-392,11928,511,616,-318
0,-400,11912,255,984,-294
0,-368,11936,0,662,218
255,-352,11904,255,742,496
0,-456,11920,511,724,156
255,-400,11952,511,634,-212
255,-392,11944,255,1008,-4
255,-440,11920,511,548,-454
0,-352,11936,0,436,-288
0,-344,11976,255,1508,-698
255,-360,11992,256,116,-600
255,-416,11936,0,732,-280
255,-144,11784,511,694,-190
255,-496,11960,511,588,-214
255,-352,11888,256,526,-170
0,-408,11904,0,1014,236
0,-416,11880,256,472,394
255,-448,11920,256,528,52
255,-400,12008,511,682,232
0,-392,11992,256,808,-104
0,-424,11976,0,402,-360
0,-488,11848,256,596,-356
0,-368,11896,256,614,-572
255,-392,11904,255,872,-766
0,-432,12000,255,492,-354
255,-440,11944,511,662,416
255,-376,11944,0,730,416
255,-448,11952,0,498,220
255,-376,11920,256,842,-240
255,-368,11928,511,598,-38
255,-416,11920,511,606,-172
255,-400,11936,511,854,-354
0,-328,15936,256,798,-26
0,-424,15912,256,514,-172
0,-376,15664,256,328,-334
255,-344,15696,256,552,-328
0,-304,15960,256,662,-722
255,-424,15776,255,642,-190
0,-384,15696,511,958,40
0,-424,15920,0,708,288
0,-424,15952,256,854,54
0,-408,15696,511,610,-172
255,-432,15904,255,660,-30
0,-352,15920,256,680,-434
0,-320,15648,511,826,-394
255,-352,15944,0,634,-376
0,-288,15720,511,598,-484
255,-392,15656,256,890,352
255,-328,15912,512,686,-732
255,-456,15648,511,548,-838
255,-440,15984,256,930,-376
0,-328,15616,511,668,-56
255,-392,15960,256,816,-132
255,-336,15704,511,356,-90
255,-368,15704,511,906,-506
255,-368,15728,255,1184,-508
255,-552,15864,511,342,-58
0,-336,15944,256,906,-262
255,-656,16120,0,732,-666
255,-424,15664,256,660,-230
0,-376,15680,511,516,98
255,-376,15712,767,538,332
255,-304,15648,255,462,340
0,-360,15632,255,1004,-30
255,-328,15656,255,454,-84
255,-200,3984,511,1066,-112
255,-232,3992,511,828,-118
0,-232,3984,511,706,-334
255,-216,4000,511,698,-102
0,-208,3984,511,580,-98
0,-216,3976,0,742,-388
255,-232,3952,256,734,-752
255,-216,3976,511,830,-260
255,-208,3968,256,810,118
0,-192,3952,256,552,86
0,-232,3968,0,456,-6
255,-216,3984,255,1268,-60
0,-208,3984,256,144,-402
255,-232,3952,256,1122,-498
255,-200,4000,511,336,-282
0,-200,3992,0,904,-324
0,-256,3968,0,680,-406
0,-200,3984,256,1086,-192
0,-240,3928,256,984,-240
0,-200,4016,255,682,-572
255,-224,3968,511,880,-352
0,-232,3992,0,478,208
0,-224,3968,256,870,576
0,-216,3952,256,432,404
0,-224,3984,256,574,244
0,-208,4000,255,938,-130
255,-208,3992,256,590,-232
0,-216,3984,256,942,-198
0,-168,3984,256,256,-328
0,-208,3976,511,774,-278
0,-224,3976,256,308,-472
255,-224,3984,511,936,216
255,-192,3984,255,414,480
0,-224,3976,256,618,102
0,-168,7712,511,764,-276
255,-136,7688,511,538,292
0,-424,7912,511,560,124
0,-416,7920,511,534,-96
0,-176,7720,511,560,-38
0,-160,7784,255,928,-278
255,-488,7880,511,438,-604
0,-456,8184,256,838,-942
255,-152,7680,511,1126,-700
0,-208,7944,256,676,-488
0,-144,7760,255,1018,100
255,-168,7720,511,734,380
0,-184,7720,511,638,216
255,-480,7928,255,1006,142
0,-232,7952,256,278,-352
255,-168,8008,0,1000,-488
0,-176,7744,255,678,-492
255,-144,7704,511,780,-374
255,-104,7960,256,794,-396
255,-232,7712,511,906,-462
0,-184,7944,0,678,-378
0,-160,7952,0,750,-632
255,-440,7880,511,546,-170
0,-208,7696,511,570,114
0,-208,7736,255,1010,308
0,-216,8000,0,194,236
255,-456,8152,0,1208,-174
255,-168,7704,255,474,178
255,-224,7728,511,870,-114
255,-176,7728,511,566,-194
255,-168,7704,255,640,-412
255,-400,8184,512,526,-482
255,-216,7984,256,1108,18
0,-176,7696,511,524,246
255,-408,7920,255,360,-64
255,-184,7768,255,1022,-234
0,-432,11944,511,576,480
0,-440,11848,511,204,174
255,-384,11944,511,1044,254
0,-408,11896,255,470,-158
0,-416,11904,511,740,-98
0,-328,11928,256,824,-366
255,-448,11928,511,588,-686
255,-432,11912,511,910,-762
255,-392,11856,255,954,-488
0,-456,11664,511,790,102
0,-432,12000,511,418,444
0,-416,11936,256,682,52
255,-344,11928,255,640,-20
255,-384,11960,256,372,-88
0,-368,11872,256,926,-164
0,-408,11944,0,712,-182
0,-504,11880,256,822,-482
255,-304,11976,256,562,-226
0,-408,11944,256,676,-92
0,-392,11968,511,650,-290
0,-472,11920,511,444,-470
0,-376,11856,0,1082,-474
0,-400,11944,256,426,140
0,-408,11952,256,936,442
0,-352,11928,256,298,264
255,-352,11912,0,1224,-244
255,-384,11928,256,768,-258
255,-400,11936,256,576,-438
0,-320,11928,256,642,-326
0,-392,11960,511,882,-396
255,-440,11960,256,952,-696
0,-336,11920,256,586,-160
0,-400,11880,256,628,114
255,-432,11896,255,946,314
0,-392,15624,511,86,100
0,-320,15696,511,770,248
0,-424,15912,256,358,262
0,-344,15632,511,1226,20
255,-664,15864,0,738,26
0,-336,15904,256,1098,-252
0,-376,15624,255,606,-428
255,-424,15648,256,622,-150
0,-320,15664,255,966,-470
255,-328,15960,256,828,-466
0,-384,15672,511,540,-166
0,-384,15664,511,596,12
255,-392,15696,511,572,220
255,-648,15856,511,536,-64
255,-392,15648,511,676,-134
255,-296,15696,255,940,-750
255,-352,15704,511,800,-710
255,-352,15624,511,558,-724
255,-672,16088,512,878,-254
511,-512,15712,255,474,-202
0,-584,15848,511,616,-28
255,-376,15696,511,908,-564
255,-336,15672,511,952,-662
255,-576,16104,256,610,-198
255,-384,15680,511,808,76
255,-656,15840,511,418,474
255,-360,15696,511,874,-50
255,-400,15944,256,874,118
0,-304,15672,511,286,-228
0,-408,15728,256,804,-340
255,-616,16104,256,538,-624
0,-480,15984,256,810,-962
255,-344,15688,511,572,-596
255,-400,15960,256,878,230
0,-392,15696,511,970,110
255,-224,3960,0,360,444
0,-224,3992,256,824,-480
0,-224,4000,256,548,82
0,-240,3976,256,400,204
255,-208,3920,511,886,118
0,-216,4008,256,524,-230
255,-240,3952,511,836,-144
0,-216,3968,256,374,-98
0,-208,3968,0,726,-86
0,-200,3968,511,908,-442
0,-200,4008,0,978,-504
255,-208,3952,256,988,0
0,-224,3936,256,294,132
0,-248,3976,256,662,-130
255,-248,3968,0,948,-240
255,-224,4000,511,574,-102
0,-232,3960,511,384,-326
255,-240,3976,511,650,-210
0,-208,3984,511,704,-74
0,-240,3968,511,266,-66
0,-232,3944,511,528,-472
255,-224,3960,511,798,-504
0,-240,3976,511,574,-664
0,-200,3968,256,272,-4
255,-232,3976,256,868,-58
255,-224,3976,256,428,212
255,-192,3984,256,978,52
0,-224,3960,256,282,-80
0,-216,3992,256,892,-370
255,-256,4000,255,372,-456
0,-248,3952,256,810,-374
255,-192,3936,511,926,-716
255,-248,3968,0,748,-640
255,-216,3992,511,638,-88
0,-160,7720,511,636,-410
255,-216,7688,255,952,-428
0,-168,7704,511,864,-400
0,-224,7960,256,908,58
255,-240,7712,255,448,148
255,-448,7920,255,1008,52
255,-448,7928,511,576,-190
0,-184,7728,511,778,-466
255,-464,7904,511,990,-146
0,-224,7952,256,304,-440
0,-176,7968,256,624,-568
255,-168,7976,0,1014,-524
0,-440,7904,511,316,-250
0,-448,7928,511,874,6
255,-472,7920,511,570,98
255,-192,7960,256,822,-232
255,-224,7936,0,738,-8
255,-216,7952,512,324,180
0,-192,7712,511,798,-224
255,-176,7680,511,846,2
0,-456,8168,0,346,-216
255,-416,7920,511,968,-412
0,-144,8016,0,720,-192
0,-200,7728,511,838,-416
0,-224,7952,256,558,-750
0,-216,7728,511,818,-444
255,-192,7712,767,260,84
255,-192,7736,511,676,178
255,-200,7728,255,494,150
0,-168,7712,255,1206,-168
255,-184,7704,255,712,-44
255,-136,7712,511,458,-146
255,-192,7728,255,582,-44
0,-344,11944,255,930,-98
0,-328,11944,256,388,-572
255,-392,12008,0,1004,-504
255,-392,11944,511,824,-584
0,-424,11896,256,564,-602
0,-384,11968,256,374,-224
255,-424,11912,255,936,304
0,-440,12000,256,828,62
255,-384,11904,512,516,-84
255,-424,11760,255,756,-482
255,-488,11976,512,512,-346
255,-384,11896,256,950,-630
0,-416,11640,255,666,-740
0,-432,11968,256,1072,-966
255,-440,11912,256,580,-734
0,-408,11944,256,286,174
0,-360,11896,256,848,64
255,-440,11896,0,212,292
0,-440,11928,511,926,-258
0,-424,11920,0,36,196
255,-408,11944,511,350,362
255,-360,11912,512,512,-206
255,-392,11944,256,810,-136
0,-456,11912,256,662,-460
255,-456,11952,256,518,-12
255,-392,11920,256,308,-224
0,-464,11920,511,546,-482
0,-400,11968,256,950,-466
0,-376,11952,0,676,172
0,-312,11640,511,688,314
255,-432,11896,0,682,422
0,-312,11944,255,948,18
0,-448,11904,256,690,-206
255,-344,15880,256,544,-488
255,-392,15928,256,430,-54
0,-328,15936,256,546,-332
255,-272,15640,511,630,-672
255,-344,15896,256,868,-328
0,-320,15872,256,614,-424
255,-328,15640,511,926,-318
255,-312,15624,511,670,-442
0,-408,15648,511,782,-96
255,-472,15960,256,924,100
255,-320,15632,255,490,58
255,-432,15688,511,788,-286
255,-368,15680,511,632,-462
0,-416,15912,256,616,-484
0,-584,15864,255,746,-434
255,-400,15912,0,766,-390
255,-648,15856,256,774,-752
255,-272,15680,511,754,-448
255,-392,15656,511,564,-24
0,-432,15688,511,860,-448
255,-424,15648,511,836,-190
0,-320,15936,0,508,88
255,-448,15624,511,464,418
255,-392,15656,255,1012,136
255,-368,15648,511,624,102
0,-376,15688,511,690,-506
255,-336,15696,255,974,-332
255,-328,15728,511,668,-390
0,-344,15976,256,706,-292
0,-368,15696,511,566,-306
0,-328,15944,256,598,-102
0,-288,15944,0,730,292
0,-384,15920,256,1066,106
255,-392,15904,0,494,-224
255,-232,3976,256,1032,-138
255,-232,3968,511,262,676
0,-224,3992,0,648,318
255,-200,3976,256,948,26
255,-256,4000,256,650,14
0,-224,4000,0,746,-120
0,-216,4000,511,302,-66
0,-200,3952,256,578,-288
0,-216,3984,511,730,-204
0,-200,3936,0,900,-222
0,-216,3992,256,622,284
0,-208,3976,256,572,160
255,-216,3992,256,630,-6
255,-248,3968,255,428,-44
0,-216,4008,255,1012,-452
255,-224,3984,511,884,-284
0,-232,3968,0,404,-622
255,-200,3976,0,506,184
255,-216,3976,256,1014,72
255,-224,3992,256,564,-62
0,-216,3968,0,742,-400
255,-176,3984,256,532,-268
255,-176,3968,511,522,212
0,-240,3992,511,738,130
255,-208,3968,256,530,412
0,-232,3968,511,358,186
0,-208,3984,512,1104,-152
0,-216,3976,0,496,-78
255,-200,3976,256,544,-328
255,-224,3960,511,550,-308
0,-208,3992,256,674,-552
255,-224,3976,256,572,-258
0,-224,3992,255,998,-172
255,-448,7904,511,164,444
0,-200,7728,511,578,-338
0,-448,8168,0,692,-200
0,-200,7976,256,868,34
255,-208,7952,256,430,4
255,-160,7688,511,724,252
255,-136,7720,511,602,-128
255,-192,7688,511,840,-64
0,-168,7696,511,74,-356
255,-208,7976,256,562,-288
255,-168,7984,0,946,-298
255,-200,7952,0,406,-638
255,-400,8184,256,900,106
0,-168,7728,511,-252,452
0,-472,8176,256,958,28
255,-168,7944,0,1012,62
255,-192,7680,511,700,194
0,-184,7736,511,324,190
0,-136,7736,255,960,18
0,-432,7872,511,670,-12
255,-192,7744,511,558,-488
255,-184,7976,256,618,-432
255,-192,7984,0,1232,-256
0,-192,7688,511,574,-456
0,-152,7968,256,856,-716
255,-184,7728,255,1018,24
255,-472,7928,511,642,308
255,-232,7992,256,544,80
0,-480,8160,256,756,-236
255,-416,7928,511,1150,-132
0,-472,8176,256,900,-476
0,-144,7712,511,804,-422
0,-440,7928,767,576,-682
255,-208,7744,255,574,-602
0,-360,11968,256,680,-286
255,-416,11944,256,794,-336
255,-416,11952,511,970,-466
