Ax,Ay,Az,Gx,Gy,Gz
-256,-406,15710,511,574,-72
-256,-384,15707,511,580,-72
-256,-381,15707,511,584,-82
-256,-392,15955,256,585,-80
-256,-393,15708,511,585,-82
-256,-398,15711,511,582,-85
-256,-394,15719,511,583,-79
-256,-393,15719,511,586,-80
-256,-390,15719,511,584,-81
-256,-390,15707,511,580,-75
-256,-384,15696,511,582,-70
-256,-389,15698,511,584,-72
-256,-392,15700,511,582,-72
-256,-395,15712,511,581,-76
-256,-399,15724,511,572,-71
-256,-396,15716,511,573,-67
-256,-400,15717,511,571,-71
-256,-403,15722,511,573,-71
-256,-408,15731,511,575,-67
-256,-408,15739,511,573,-65
-256,-398,15740,511,575,-67
-256,-394,15724,511,570,-64
-256,-399,15714,511,569,-64
-256,-396,15711,511,568,-65
-256,-398,15711,511,569,-63
-256,-394,15718,511,573,-69
-256,-390,15989,256,569,-75
-256,-388,15996,256,569,-81
-256,-386,15739,511,573,-80
-256,-383,15735,511,573,-79
-256,-387,15727,511,571,-78
-256,-391,15719,511,569,-77
-256,-397,15715,511,574,-78
-256,-399,15715,511,576,-76
-256,-406,15716,511,573,-74
-256,-411,15710,511,570,-72
-256,-401,15704,511,569,-73
-256,-401,15706,511,578,-71
-256,-394,15703,511,579,-75
-256,-401,15707,511,580,-73
-256,-396,15717,511,582,-73
-256,-389,15725,511,584,-76
-256,-385,15719,511,583,-77
-256,-395,15725,511,580,-76
-256,-404,15728,511,577,-73
-256,-410,15730,511,575,-74
-256,-409,15728,511,574,-72
-256,-397,15737,511,572,-67
-256,-385,15729,511,573,-71
-256,-372,15724,511,570,-71
-256,-381,15735,511,570,-66
-256,-389,15985,256,575,-71
-256,-381,15733,511,575,-74
-256,-381,15722,511,569,-77
-256,-380,15979,256,570,-78
-256,-387,15992,256,570,-77
-256,-385,15995,256,571,-76
-256,-378,15739,511,568,-77
-256,-379,15737,511,574,-77
-256,-377,15737,511,574,-76
-256,-370,15727,511,575,-75
-256,-379,15721,511,576,-75
-256,-383,15718,511,576,-74
-256,-390,15973,256,574,-75
-256,-399,15990,256,570,-77
-256,-393,15735,511,570,-78
-256,-388,15738,511,570,-72
-256,-391,15717,511,566,-71
-256,-398,15718,511,571,-71
-256,-382,15714,511,570,-76
-256,-385,15722,511,571,-77
-256,-389,15719,511,574,-76
-256,-391,15729,511,579,-76
-256,-381,15733,511,578,-78
-256,-395,15721,511,576,-73
-256,-386,15730,511,573,-72
-256,-380,15732,511,569,-79
-256,-374,15726,511,570,-76
-256,-379,15720,511,571,-72
-256,-386,15716,511,573,-68
-256,-392,15707,511,575,-70
-256,-396,15718,511,581,-69
-256,-397,15725,511,585,-72
-256,-398,15720,511,581,-76
-256,-400,15711,511,580,-79
-256,-384,15714,511,577,-75
-256,-391,15703,511,573,-73
-256,-409,15704,511,577,-74
-256,-407,15705,511,580,-77
-256,-401,15713,511,582,-78
-256,-398,15968,256,581,-77
-256,-396,15710,511,579,-74
-256,-392,15711,511,574,-67
-256,-385,15712,511,572,-69
-256,-388,15708,511,575,-71
-256,-407,15704,511,577,-71
-256,-405,15706,511,577,-67
-256,-405,15707,511,578,-66
-256,-409,15713,511,580,-67
-256,-416,15707,511,581,-74
-256,-415,15703,511,580,-75
-256,-405,15694,511,584,-73
-256,-412,15702,511,585,-74
-256,-402,15704,511,584,-73
-256,-389,15715,511,584,-75
-256,-380,15713,511,580,-76
-256,-386,15976,256,581,-71
-256,-372,15981,256,578,-73
-256,-372,15982,256,578,-73
-256,-361,15730,511,577,-72
-256,-385,15730,511,581,-67
-256,-397,15731,511,578,-74
-256,-397,15729,511,577,-82
-256,-395,15978,256,581,-83
-256,-388,15973,256,580,-82
-256,-387,15967,256,580,-82
-256,-376,15967,256,582,-81
-256,-374,15958,256,583,-78
-256,-381,15958,256,584,-79
-256,-388,15707,511,581,-74
-256,-393,15713,511,581,-68
-256,-396,15724,511,578,-68
-256,-389,15716,511,578,-72
-256,-378,15715,511,580,-72
-256,-388,15713,511,573,-74
-256,-400,15704,511,571,-75
-256,-403,15700,511,571,-76
-256,-405,15701,511,571,-76
-256,-410,15701,511,578,-73
-256,-412,15703,511,583,-74
-256,-405,15711,511,581,-76
-256,-391,15709,511,580,-76
-256,-384,15716,511,585,-76
-256,-397,15729,511,582,-80
-256,-400,15715,511,581,-81
-256,-393,15701,511,581,-74
-256,-389,15692,511,581,-76
-256,-391,15688,511,584,-73
-256,-385,15699,511,589,-74
-256,-389,15708,511,592,-73
-256,-397,15721,511,589,-73
-256,-404,15723,511,585,-70
-256,-407,15732,511,584,-75
-256,-400,15721,511,589,-76
-256,-392,15720,511,587,-75
-256,-395,15722,511,586,-78
-256,-390,15719,511,585,-74
-256,-395,15712,511,584,-70
-256,-391,15714,511,579,-70
-256,-402,15709,511,582,-69
-256,-412,15706,511,581,-72
-256,-413,15700,511,578,-74
-256,-405,15717,511,577,-78
-256,-399,15710,511,580,-73
-256,-399,15961,256,578,-71
-256,-396,15958,256,573,-74
-256,-383,15705,511,573,-74
-256,-386,15710,511,572,-78
-256,-396,15700,511,571,-72
-256,-392,15949,256,574,-69
-256,-405,15688,511,575,-73
-256,-409,15686,511,579,-71
-256,-413,15683,511,581,-72
-256,-415,15938,256,579,-73
-256,-404,15683,511,582,-73
-256,-397,15703,511,581,-72
-256,-394,15703,511,580,-69
-256,-391,15960,256,580,-64
-256,-395,15717,511,581,-71
-256,-396,15706,511,582,-74
-256,-395,15708,511,578,-78
-256,-407,15709,511,582,-72
-256,-403,15700,511,580,-66
-256,-407,15702,511,579,-71
-256,-404,15700,511,580,-69
-256,-390,15707,511,580,-65
-256,-386,15708,511,576,-64
-256,-374,15715,511,570,-68
-256,-380,15712,511,567,-71
-256,-381,15715,511,569,-69
-256,-383,15718,511,576,-74
-256,-392,15713,511,576,-73
-256,-396,15709,511,577,-70
-256,-398,15704,511,581,-73
-256,-403,15715,511,575,-71
-256,-402,15720,511,571,-70
-256,-396,15722,511,570,-63
-256,-392,15732,511,576,-62
-256,-389,15736,511,580,-62
-256,-384,15721,511,584,-65
-256,-392,15714,511,583,-70
-256,-388,15712,511,580,-66
-256,-389,15713,511,580,-66
-256,-395,15705,511,579,-72
-256,-402,15702,511,581,-75
-256,-412,15722,511,576,-76
-256,-415,15720,511,580,-73
-256,-401,15721,511,586,-69
-256,-399,15719,511,584,-70
-256,-395,15713,511,588,-67
-256,-391,15719,511,589,-66
-256,-391,15716,511,583,-69
-256,-402,15726,511,581,-68
-256,-410,15732,511,577,-65
-256,-411,15730,511,577,-64
-256,-400,15733,511,574,-68
-256,-394,15729,511,578,-68
-256,-393,15726,511,584,-66
-256,-395,15722,511,582,-72
-256,-398,15720,511,576,-73
-256,-416,15714,511,578,-72
-256,-410,15702,511,577,-72
-256,-405,15696,511,574,-74
-256,-407,15959,256,576,-75
-256,-406,15952,256,574,-74
-256,-400,15962,256,575,-78
-256,-398,15703,511,580,-78
-256,-399,15697,511,577,-74
-256,-399,15697,511,579,-72
-256,-386,15692,511,578,-72
-256,-406,15697,511,577,-69
-256,-400,15709,511,573,-69
-256,-396,15715,511,573,-74
-256,-396,15710,511,569,-78
-256,-410,15708,511,570,-81
-256,-406,15701,511,577,-84
-256,-399,15717,511,576,-80
-256,-392,15977,256,575,-74
-256,-386,15722,511,577,-68
-256,-393,15715,511,575,-63
-256,-393,15700,511,577,-69
-256,-388,15704,511,579,-72
-256,-368,15691,511,580,-73
-256,-378,15691,511,582,-79
-256,-382,15694,511,581,-77
-256,-393,15695,511,579,-71
-256,-391,15694,511,581,-71
-256,-390,15963,256,587,-71
-256,-385,15713,511,587,-75
-256,-389,15710,511,581,-80
-256,-393,15710,511,581,-83
-256,-397,15715,511,584,-83
-256,-390,15959,256,579,-79
-256,-398,15949,256,579,-80
-256,-401,15950,256,578,-81
-256,-408,15958,256,576,-72
-256,-410,15715,511,576,-63
-256,-396,15702,511,579,-57
-256,-395,15700,511,577,-61
-256,-398,15707,511,577,-66
-256,-399,15711,511,578,-74
-256,-402,15712,511,575,-78
-256,-396,15714,511,577,-77
-256,-395,15734,511,579,-78
-256,-394,15736,511,577,-80
-256,-388,15737,511,574,-76
-256,-397,15726,511,576,-77
-256,-400,15723,511,577,-73
-256,-404,15713,511,576,-76
-256,-408,15715,511,576,-77
-256,-411,15732,511,578,-77
-256,-402,15721,511,580,-75
-256,-401,15725,511,581,-67
-256,-406,15723,511,582,-65
-256,-403,15721,511,580,-70
-256,-399,15726,511,580,-69
-256,-389,15737,511,580,-71
-256,-379,15740,511,584,-74
-256,-379,15728,511,581,-73
-256,-394,15725,511,581,-75
-256,-404,15725,511,574,-77
-256,-409,15712,511,572,-78
-256,-406,15702,511,572,-80
-256,-411,15710,511,576,-79
-256,-413,15699,511,575,-78
-256,-409,15701,511,577,-75
-256,-407,15718,511,577,-74
-256,-399,15722,511,576,-78
-256,-403,15722,511,576,-77
-256,-392,15718,511,573,-78
-256,-390,15964,256,574,-79
-256,-396,15710,511,579,-78
-256,-403,15725,511,578,-72
-256,-391,15981,256,574,-75
-256,-394,15966,256,570,-75
-256,-402,15961,256,569,-73
-256,-410,15703,511,565,-69
-256,-400,15960,256,565,-73
-256,-414,15958,256,569,-70
-256,-416,15709,511,566,-65
-256,-408,15964,256,568,-70
-256,-414,15963,256,568,-72
-256,-416,15698,511,565,-74
-256,-408,15698,511,563,-76
-256,-406,15702,511,566,-80
-256,-395,15719,511,571,-75
-256,-380,15734,511,565,-71
-256,-384,15732,511,567,-72
-256,-388,15739,511,573,-71
-256,-381,15982,256,576,-68
-256,-391,15723,511,580,-68
-256,-399,15715,511,581,-77
-256,-400,15986,256,584,-79
-256,-408,15735,511,575,-74
-256,-397,15719,511,569,-78
-256,-398,15717,511,570,-78
-256,-404,15719,511,572,-81
-256,-411,15711,511,575,-73
-256,-402,15708,511,575,-71
-256,-389,15713,511,574,-70
-256,-378,15698,511,576,-71
-256,-376,15692,511,577,-73
-256,-379,15698,511,579,-75
-256,-384,15707,511,582,-69
-256,-384,15715,511,578,-73
-256,-391,15724,511,576,-77
-256,-393,15726,511,578,-74
-256,-387,15739,511,574,-70
-256,-394,15734,511,566,-72
-256,-400,15987,256,563,-70
-256,-402,15724,511,565,-70
-256,-400,15976,256,567,-73
-256,-389,15971,256,570,-72
-256,-395,15968,256,571,-74
-256,-393,15975,256,577,-73
-256,-388,15979,256,578,-69
-256,-396,15978,256,579,-71
-256,-393,15716,511,580,-72
-256,-388,15710,511,578,-71
-256,-389,15973,256,574,-74
-256,-397,15721,511,570,-79
-256,-400,15717,511,569,-81
-256,-400,15724,511,568,-81
-256,-396,15727,511,571,-78
-256,-393,15732,511,573,-75
-256,-394,15722,511,576,-74
-256,-392,15726,511,580,-73
-256,-397,15977,256,582,-70
-256,-395,15978,256,585,-73
-256,-394,15976,256,585,-77
-256,-389,15971,256,587,-78
-256,-373,15957,256,582,-78
-256,-371,15950,256,580,-76
-256,-373,15945,256,582,-78
-256,-385,15954,256,576,-77
-256,-384,15953,256,574,-80
-256,-379,15965,256,574,-80
-256,-390,15968,256,576,-84
-256,-405,15965,256,570,-80
-256,-403,15710,511,567,-80
-256,-396,15715,511,572,-78
-256,-383,15716,511,569,-79
-256,-383,15707,511,573,-80
-256,-390,15708,511,573,-78
-256,-386,15722,511,571,-80
-256,-382,15723,511,576,-80
-256,-378,15716,511,578,-77
-256,-377,15720,511,582,-80
-256,-381,15713,511,587,-80
-256,-390,15704,511,584,-81
-256,-381,15704,511,585,-78
-256,-372,15706,511,586,-74
-256,-381,15695,511,583,-71
-256,-386,15693,511,583,-70
-256,-394,15690,511,580,-72
-256,-395,15689,511,576,-78
-256,-397,15683,511,577,-81
-256,-395,15689,511,576,-80
-256,-417,15943,256,580,-79
-256,-413,15957,256,582,-81
-256,-418,15703,511,582,-78
-256,-418,15954,256,578,-79
-256,-408,15965,256,580,-80
-256,-397,15716,511,578,-81
-256,-395,15725,511,575,-83
-256,-399,15724,511,575,-78
-256,-406,15725,511,573,-74
-256,-395,15723,511,574,-75
-256,-385,15724,511,578,-70
-256,-395,15723,511,574,-71
-256,-406,15733,511,574,-70
-256,-409,15722,511,573,-71
-256,-408,15728,511,575,-76
-256,-403,15727,511,577,-82
-256,-394,15730,511,576,-82
-256,-395,15724,511,578,-82
-256,-400,15718,511,571,-82
-256,-394,15719,511,569,-85
-256,-397,15709,511,574,-79
-256,-394,15714,511,576,-77
-256,-390,15962,256,572,-72
-256,-402,15966,256,568,-72
-256,-405,15967,256,568,-70
-256,-405,15967,256,573,-69
-256,-392,15960,256,579,-73
-256,-395,15706,511,579,-78
-256,-397,15709,511,576,-79
-256,-391,15699,511,577,-77
-256,-385,15703,511,584,-77
-256,-390,15715,511,583,-84
-256,-397,15714,511,580,-75
-256,-397,15707,511,579,-70
-256,-401,15712,511,573,-73
-256,-401,15716,511,566,-76
-256,-396,15718,511,570,-82
-256,-394,15728,511,575,-76
-256,-391,15730,511,574,-74
-256,-387,15712,511,574,-79
-256,-391,15715,511,570,-80
-256,-395,15720,511,572,-79
-256,-382,15718,511,573,-71
-256,-392,15722,511,575,-71
-256,-385,15727,511,573,-71
-256,-387,15738,511,576,-70
-256,-396,15731,511,575,-71
-256,-402,15735,511,571,-72
-256,-406,15977,256,573,-72
-256,-405,15722,511,575,-75
-256,-397,15977,256,579,-76
-256,-392,15991,256,581,-78
-256,-396,15728,511,577,-82
-256,-399,15723,511,579,-81
-256,-410,15717,511,583,-78
-256,-408,15707,511,581,-79
-256,-393,15697,511,580,-80
-256,-395,15687,511,576,-74
-256,-391,15678,511,572,-68
-256,-402,15687,511,575,-67
-256,-407,15689,511,578,-72
-256,-409,15696,511,580,-71
-256,-399,15709,511,573,-71
-256,-397,15714,511,572,-69
-256,-395,15710,511,574,-73
-256,-390,15964,256,572,-75
-256,-384,15713,511,571,-68
-256,-385,15722,511,572,-68
-256,-382,15712,511,577,-72
-256,-381,15708,511,578,-73
-256,-376,15715,511,575,-78
-256,-397,15714,511,576,-75
-256,-402,15712,511,577,-73
-256,-409,15712,511,575,-73
-256,-402,15709,511,573,-74
-256,-398,15715,511,574,-74
-256,-401,15721,511,574,-77
-256,-397,15729,511,577,-80
-256,-392,15728,511,580,-74
-256,-380,15721,511,579,-70
-256,-376,15724,511,579,-76
-256,-382,15729,511,581,-76
-256,-385,15724,511,582,-76
-256,-389,15723,511,578,-79
-256,-395,15729,511,578,-76
-256,-387,15725,511,577,-75
-256,-389,15728,511,575,-73
-256,-389,15725,511,574,-67
-256,-392,15734,511,571,-65
-256,-394,15733,511,576,-71
-256,-394,15732,511,578,-75
-256,-396,15730,511,577,-74
-256,-389,15717,511,572,-73
-256,-394,15722,511,574,-73
-256,-390,15724,511,577,-76
-256,-391,15719,511,575,-75
-256,-392,15717,511,574,-72
-256,-393,15718,511,574,-71
-256,-395,15707,511,575,-74
-256,-383,15710,511,578,-75
-256,-394,15713,511,580,-76
-256,-392,15714,511,581,-75
-256,-399,15712,511,579,-80
-256,-380,15705,511,577,-82
-256,-368,15697,511,575,-78
-256,-367,15704,511,575,-80
-256,-373,15952,256,576,-83
-256,-384,15696,511,575,-87
-256,-383,15698,511,576,-84
-256,-380,15704,511,578,-85
-256,-376,15712,511,573,-83
-256,-382,15716,511,570,-80
-256,-388,15702,511,572,-81
-256,-391,15702,511,573,-84
-256,-396,15706,511,572,-84
-256,-409,15710,511,569,-74
-256,-394,15713,511,566,-78
-256,-395,15716,511,570,-76
-256,-392,15715,511,571,-75
-256,-389,15961,256,573,-72
-256,-387,15958,256,573,-73
-256,-379,15962,256,572,-73
-256,-376,15711,511,575,-70
-256,-371,15971,256,579,-68
-256,-366,15970,256,579,-73
-256,-377,15716,511,582,-79
-256,-383,15728,511,578,-79
-256,-392,15737,511,582,-78
-256,-390,15722,511,589,-74
-256,-385,15726,511,586,-71
-256,-385,15718,511,582,-69
-256,-391,15710,511,581,-71
-256,-383,15716,511,580,-76
-256,-386,15722,511,580,-78
-256,-384,15716,511,579,-77
-256,-393,15727,511,578,-78
-256,-376,15734,511,578,-78
-256,-376,15732,511,574,-77
-256,-381,15726,511,574,-83
-256,-376,15718,511,576,-82
-256,-394,15722,511,578,-80
-256,-390,15738,511,576,-81
-256,-398,15725,511,574,-81
-256,-400,15718,511,573,-77
-256,-387,15710,511,572,-70
-256,-389,15718,511,576,-74
-256,-392,15713,511,577,-71
-256,-381,15722,511,572,-78
-256,-375,15720,511,565,-77
-256,-363,15731,511,566,-72
-256,-367,15729,511,565,-71
-256,-369,15732,511,574,-76
-256,-368,15733,511,576,-76
-256,-384,15992,256,575,-77
-256,-391,15725,511,572,-79
-256,-396,15723,511,573,-75
-256,-410,15713,511,578,-79
-256,-409,15722,511,581,-78
-256,-400,15726,511,586,-83
-256,-406,15722,511,581,-83
-256,-406,15726,511,581,-78
-256,-417,15728,511,577,-75
-256,-420,15728,511,575,-73
-256,-420,15721,511,574,-71
-256,-409,15716,511,574,-74
-256,-400,15715,511,573,-72
-256,-382,15721,511,579,-69
-256,-375,15721,511,579,-73
-256,-385,15716,511,573,-74
-256,-379,15705,511,573,-75
-256,-384,15714,511,576,-77
-256,-393,15727,511,579,-79
-256,-392,15977,256,584,-80
-256,-399,15981,256,585,-79
-256,-390,15713,511,581,-78
-256,-387,15704,511,581,-79
-256,-390,15709,511,580,-78
-256,-379,15708,511,582,-75
-256,-383,15705,511,580,-76
-256,-389,15695,511,574,-78
-256,-390,15689,511,574,-75
-256,-391,15695,511,575,-76
-256,-383,15707,511,577,-74
-256,-379,15718,511,582,-75
-256,-373,15718,511,581,-76
-256,-378,15710,511,581,-74
-256,-388,15703,511,578,-76
-256,-379,15706,511,578,-78
-256,-371,15709,511,575,-80
-256,-375,15713,511,575,-75
-256,-381,15718,511,577,-79
-256,-377,15719,511,578,-76
-256,-384,15722,511,581,-75
-256,-377,15717,511,580,-72
-256,-372,15712,511,585,-71
-256,-371,15711,511,589,-69
-256,-368,15713,511,590,-70
-256,-381,15713,511,583,-77
-256,-379,15701,511,579,-77
-256,-389,15698,511,581,-77
-256,-396,15700,511,582,-81
-256,-401,15706,511,587,-76
-256,-406,15699,511,588,-69
-256,-406,15696,511,584,-69
-256,-406,15696,511,583,-74
-256,-400,15697,511,580,-77
-256,-406,15705,511,584,-77
-256,-406,15700,511,584,-74
-256,-403,15709,511,578,-77
-256,-406,15705,511,578,-82
-256,-409,15708,511,576,-80
-256,-393,15712,511,579,-79
-256,-387,15711,511,577,-80
-256,-394,15722,511,575,-82
-256,-407,15982,256,577,-81
-256,-410,15979,256,573,-78
-256,-403,15967,256,574,-78
-256,-400,15986,256,571,-74
-256,-401,15725,511,573,-73
-256,-389,15971,256,577,-76
-256,-395,15716,511,575,-73
-256,-398,15720,511,574,-74
-256,-400,15724,511,576,-76
-256,-407,15719,511,578,-75
-256,-409,15717,511,579,-76
-256,-390,15710,511,576,-74
-256,-397,15716,511,574,-72
-256,-402,15720,511,576,-71
-256,-401,15724,511,579,-71
-256,-406,15727,511,579,-76
-256,-412,15734,511,577,-74
-256,-411,15728,511,578,-74
-256,-409,15727,511,582,-73
-256,-402,15731,511,581,-72
-256,-412,15714,511,583,-72
-256,-409,15729,511,583,-69
-256,-410,15738,511,580,-70
-256,-406,15737,511,582,-73
-256,-406,15733,511,584,-75
-256,-398,15730,511,582,-73
-256,-394,15717,511,581,-77
-256,-391,15720,511,578,-75
-256,-386,15714,511,579,-73
-256,-383,15717,511,581,-77
-256,-373,15984,256,580,-74
-256,-384,15988,256,579,-72
-256,-393,15723,511,580,-71
-256,-396,15975,256,583,-72
-256,-398,15722,511,578,-75
-256,-398,15735,511,577,-78
-256,-402,15742,511,578,-79
-256,-391,15732,511,575,-78
-256,-389,15722,511,577,-80
-256,-395,15722,511,580,-75
-256,-408,15719,511,581,-78
-256,-399,15724,511,575,-81
-256,-398,15978,256,574,-78
-256,-402,15716,511,569,-82
-256,-407,15716,511,569,-85
-256,-409,15719,511,569,-84
-256,-407,15970,256,571,-81
-256,-417,15963,256,573,-82
-256,-409,15699,511,575,-82
-256,-400,15698,511,581,-76
-256,-390,15690,511,579,-79
-256,-392,15688,511,582,-77
-256,-400,15689,511,585,-77
-256,-409,15682,511,582,-78
-256,-403,15684,511,578,-81
-256,-389,15694,511,575,-80
-256,-380,15705,511,574,-75
-256,-391,15703,511,575,-74
-256,-388,15693,511,578,-72
-256,-381,15701,511,581,-67
-256,-389,15707,511,580,-66
-256,-392,15706,511,580,-71
-256,-392,15704,511,580,-74
-256,-395,15969,256,579,-79
-256,-384,15960,256,579,-76
-256,-374,15715,511,582,-73
-256,-379,15719,511,580,-71
-256,-376,15981,256,578,-80
-256,-371,15723,511,580,-78
-256,-376,15724,511,582,-77
-256,-384,15731,511,580,-78
-256,-383,15736,511,581,-77
-256,-382,15731,511,582,-73
-256,-389,15725,511,580,-76
-256,-384,15725,511,574,-79
-256,-390,15711,511,570,-83
-256,-401,15707,511,571,-83
-256,-395,15717,511,567,-81
-256,-389,15724,511,567,-80
-256,-393,15979,256,571,-78
-256,-391,15981,256,568,-77
-256,-386,15973,256,574,-78
-256,-391,15969,256,574,-80
-256,-392,15973,256,571,-83
-256,-388,15971,256,573,-73
-256,-390,15968,256,577,-66
-256,-400,15968,256,577,-71
-256,-402,15960,256,577,-75
-256,-392,15700,511,575,-78
-256,-388,15691,511,570,-78
-256,-388,15684,511,570,-80
-256,-390,15693,511,575,-81
-256,-396,15691,511,579,-77
-256,-405,15685,511,576,-75
-256,-413,15693,511,575,-74
-256,-409,15689,511,575,-76
-256,-397,15688,511,573,-77
-256,-386,15700,511,575,-76
-256,-388,15695,511,576,-77
-256,-384,15688,511,578,-73
-256,-386,15693,511,577,-74
-256,-394,15700,511,583,-73
-256,-409,15707,511,585,-75
-256,-407,15711,511,583,-78
-256,-406,15719,511,583,-75
-256,-420,15715,511,582,-79
-256,-423,15709,511,584,-82
-256,-420,15710,511,582,-81
-256,-407,15697,511,580,-79
-256,-409,15691,511,581,-82
-256,-413,15701,511,579,-82
-256,-410,15701,511,579,-80
-256,-417,15719,511,576,-80
-256,-408,15719,511,571,-80
-256,-412,15713,511,568,-80
-256,-415,15703,511,571,-82
-256,-408,15701,511,573,-82
-256,-398,15712,511,569,-83
-256,-399,15709,511,568,-79
-256,-403,15708,511,570,-73
-256,-395,15703,511,568,-74
-256,-389,15700,511,567,-71
-256,-378,15707,511,569,-67
-256,-374,15710,511,571,-66
-256,-376,15723,511,571,-67
-256,-391,15727,511,575,-71
-256,-384,15722,511,579,-68
-256,-387,15718,511,577,-68
-256,-382,15718,511,576,-72
-256,-388,15721,511,580,-74
-256,-381,15725,511,579,-76
-256,-380,15715,511,577,-79
-256,-377,15709,511,580,-81
-256,-393,15720,511,580,-81
-256,-398,15978,256,583,-80
-256,-404,15982,256,583,-78
-256,-406,15981,256,581,-80
-256,-414,15974,256,584,-77
-256,-418,15957,256,582,-74
-256,-423,15707,511,578,-76
-256,-425,15708,511,577,-78
-256,-419,15703,511,582,-80
-256,-412,15725,511,582,-79
-256,-405,15724,511,582,-78
-256,-401,15739,511,579,-78
-256,-398,15747,511,577,-73
-256,-408,15745,511,573,-74
-256,-408,15990,256,570,-78
-256,-403,15735,511,567,-81
-256,-407,15748,511,567,-79
-256,-401,15749,511,568,-77
-256,-401,15744,511,570,-69
-256,-397,15739,511,572,-71
-256,-391,15731,511,566,-69
-256,-394,15726,511,568,-69
-256,-394,15734,511,568,-76
-256,-383,15728,511,568,-77
-256,-399,15728,511,570,-76
-256,-395,15729,511,572,-80
-256,-398,15727,511,576,-80
-256,-390,15717,511,574,-82
-256,-381,15708,511,575,-78
-256,-389,15709,511,576,-76
-256,-392,15718,511,578,-79
-256,-399,15721,511,582,-79
-256,-399,15715,511,579,-75
-256,-409,15715,511,577,-75
-256,-422,15702,511,579,-73
-256,-408,15700,511,577,-73
-256,-399,15711,511,579,-75
-256,-387,15710,511,578,-73
-256,-395,15714,511,575,-74
-256,-401,15714,511,575,-68
-256,-398,15701,511,576,-67
-256,-394,15696,511,580,-67
-256,-390,15688,511,585,-65
-256,-390,15695,511,582,-74
-256,-394,15699,511,577,-81
-256,-401,15696,511,580,-82
-256,-406,15699,511,582,-79
-256,-407,15695,511,581,-77
-256,-394,15690,511,579,-78
-256,-393,15691,511,573,-80
-256,-401,15699,511,570,-76
-256,-415,15693,511,572,-72
-256,-422,15697,511,569,-72
-256,-423,15971,256,568,-74
-256,-420,15734,511,571,-76
-256,-422,15740,511,572,-70
-256,-407,15736,511,573,-74
-256,-399,15735,511,580,-71
-256,-410,15742,511,580,-70
-256,-405,15744,511,580,-69
-256,-410,15742,511,579,-68
-256,-407,15717,511,581,-72
-256,-402,15704,511,584,-73
-256,-402,15701,511,582,-77
-256,-409,15706,511,581,-76
-256,-406,15708,511,580,-76
-256,-413,15705,511,579,-77
-256,-414,15706,511,577,-78
-256,-404,15718,511,574,-78
-256,-395,15718,511,573,-80
-256,-398,15710,511,571,-75
-256,-408,15710,511,573,-77
-256,-420,15709,511,575,-76
-256,-428,15973,256,577,-75
-256,-431,15712,511,576,-78
-256,-426,15721,511,574,-76
-256,-411,15717,511,572,-71
-256,-407,15717,511,575,-75
-256,-401,15727,511,581,-78
-256,-407,15736,511,582,-73
-256,-400,15731,511,581,-70
-256,-392,15725,511,578,-73
-256,-394,15732,511,579,-70
-256,-385,15730,511,578,-64
-256,-383,15720,511,578,-69
-256,-386,15729,511,579,-67
-256,-384,15735,511,578,-65
-256,-390,15737,511,576,-63
-256,-389,15730,511,580,-64
-256,-392,15714,511,579,-66
-256,-385,15708,511,578,-65
-256,-385,15710,511,578,-65
-256,-386,15711,511,575,-61
-256,-397,15714,511,574,-60
-256,-402,15713,511,571,-63
-256,-397,15713,511,569,-62
-256,-400,15721,511,572,-61
-256,-405,15719,511,574,-58
-256,-393,15717,511,571,-55
-256,-386,15726,511,568,-61
-256,-385,15713,511,572,-63
-256,-394,15708,511,575,-63
-256,-397,15701,511,576,-64
-256,-388,15697,511,577,-59
-256,-395,15704,511,579,-62
-256,-384,15704,511,579,-71
-256,-396,15704,511,585,-71
-256,-405,15705,511,581,-69
-256,-402,15711,511,575,-70
-256,-404,15705,511,570,-76
-256,-398,15701,511,573,-75
-256,-397,15954,256,574,-78
-256,-388,15958,256,578,-77
-256,-375,15702,511,579,-77
-256,-366,15700,511,575,-75
-256,-373,15956,256,580,-75
-256,-374,15713,511,586,-74
-256,-373,15963,256,580,-75
-256,-372,15970,256,577,-77
-256,-377,15989,256,576,-77
-256,-386,15986,256,577,-74
-256,-386,15985,256,576,-71
-256,-385,15983,256,574,-72
-256,-384,15979,256,578,-74
-256,-402,15970,256,581,-72
-256,-394,15713,511,579,-77
-256,-392,15711,511,581,-82
-256,-395,15714,511,576,-83
-256,-396,15713,511,572,-88
-256,-399,15711,511,573,-89
-256,-391,15711,511,573,-86
-256,-383,15710,511,571,-82
-256,-381,15712,511,575,-80
-256,-377,15724,511,576,-78
-256,-383,15975,256,576,-77
-256,-384,15969,256,578,-83
-256,-383,15966,256,581,-74
-256,-386,15712,511,577,-77
-256,-377,15718,511,571,-80
-256,-378,15716,511,575,-78
-256,-379,15729,511,581,-77
-256,-373,15736,511,578,-78
-256,-379,15732,511,580,-74
-256,-379,15732,511,581,-72
-256,-402,15727,511,583,-76
-256,-405,15723,511,583,-78
-256,-416,15714,511,581,-80
-256,-417,15706,511,578,-82
-256,-410,15694,511,581,-80
-256,-407,15701,511,578,-78
-256,-405,15696,511,573,-73
-256,-394,15693,511,574,-76
-256,-392,15702,511,573,-77
-256,-398,15704,511,575,-78
-256,-399,15712,511,580,-74
-256,-402,15715,511,581,-78
-256,-402,15722,511,577,-85
-256,-393,15722,511,577,-81
-256,-382,15718,511,582,-79
-256,-373,15716,511,582,-80
-256,-373,15729,511,583,-81
-256,-377,16001,256,586,-77
-256,-382,15743,511,590,-73
-256,-385,15988,256,585,-76
-256,-377,15721,511,582,-81
-256,-380,15723,511,583,-82
-256,-388,15725,511,577,-85
-256,-383,15713,511,573,-82
-256,-387,15978,256,571,-83
-256,-387,15734,511,572,-79
-256,-372,15729,511,576,-80
-256,-375,15726,511,573,-86
-256,-390,15712,511,570,-80
-256,-408,15707,511,571,-79
-256,-405,15702,511,573,-77
-256,-388,15710,511,577,-81
-256,-376,15713,511,575,-81
-256,-374,15724,511,577,-78
-256,-369,15730,511,576,-80
-256,-370,15737,511,577,-73
-256,-365,15741,511,579,-68
-256,-371,15730,511,581,-71
-256,-375,15976,256,579,-76
-256,-378,15717,511,576,-78
-256,-376,15712,511,578,-74
-256,-386,15711,511,581,-75
-256,-380,15717,511,583,-86
-256,-382,15721,511,579,-85
-256,-394,15708,511,580,-87
-256,-412,15709,511,578,-83
-256,-420,15963,256,575,-77
-256,-419,15956,256,572,-81
-256,-413,15960,256,574,-78
-256,-411,15963,256,573,-77
-256,-391,15959,256,574,-82
-256,-399,15950,256,573,-84
-256,-391,15957,256,574,-85
-256,-378,15970,256,570,-81
-256,-377,15981,256,570,-73
-256,-378,15717,511,574,-72
-256,-389,15715,511,574,-73
-256,-396,15718,511,578,-76
-256,-395,15716,511,577,-72
-256,-393,15710,511,581,-74
-256,-388,15722,511,578,-77
-256,-382,15719,511,572,-75
-256,-377,15726,511,569,-73
-256,-388,15718,511,568,-71
-256,-385,15713,511,567,-69
-256,-377,15713,511,567,-77
-256,-381,15716,511,566,-74
-256,-374,15718,511,573,-73
-256,-377,15728,511,576,-75
-256,-391,15732,511,576,-72
-256,-387,15729,511,581,-73
-256,-390,15726,511,584,-73
-256,-391,15720,511,585,-70
-256,-401,15725,511,585,-76
-256,-412,15722,511,578,-76
-256,-406,15720,511,583,-72
-256,-412,15702,511,580,-71
-256,-411,15707,511,579,-78
-256,-417,15705,511,576,-75
-256,-419,15699,511,574,-72
-256,-404,15686,511,581,-76
-256,-396,15695,511,580,-78
-256,-391,15694,511,580,-77
-256,-385,15690,511,578,-81
-256,-384,15692,511,577,-81
-256,-378,15696,511,576,-83
-256,-392,15698,511,577,-78
-256,-392,15694,511,577,-77
-256,-391,15704,511,575,-77
-256,-397,15716,511,572,-80
-256,-409,15711,511,576,-81
-256,-416,15713,511,577,-81
-256,-411,15710,511,581,-81
-256,-410,15722,511,580,-80
-256,-413,15713,511,579,-74
-256,-408,15706,511,581,-76
-256,-404,15704,511,583,-77
-256,-396,15704,511,582,-77
-256,-396,15698,511,579,-77
-256,-403,15710,511,581,-75
-256,-389,15713,511,587,-73
-256,-387,15707,511,589,-76
-256,-395,15701,511,585,-77
-256,-387,15958,256,585,-73
-256,-381,15712,511,585,-74
-256,-385,15719,511,585,-72
-256,-387,15718,511,588,-69
-256,-400,15729,511,583,-74
-256,-391,15720,511,585,-79
-256,-390,15711,511,586,-82
-256,-393,15724,511,586,-87
-256,-411,15727,511,586,-86
-256,-411,15979,256,586,-86
-256,-417,15719,511,586,-78
-256,-416,15977,256,585,-80
-256,-420,15718,511,586,-81
-256,-413,15720,511,580,-79
-256,-407,15726,511,573,-78
-256,-392,15729,511,579,-72
-256,-378,15739,511,582,-67
-256,-378,15742,511,581,-65
-256,-381,15742,511,582,-67
-256,-379,15734,511,583,-66
-256,-374,15716,511,580,-72
-256,-377,15707,511,585,-76
-256,-380,15704,511,583,-78
-256,-373,15700,511,582,-80
-256,-370,15706,511,581,-79
-256,-374,15703,511,583,-75
-256,-391,15696,511,582,-73
-256,-395,15711,511,578,-76
-256,-412,15719,511,572,-79
-256,-414,15717,511,572,-78
-256,-421,15716,511,572,-77
-256,-422,15707,511,572,-78
-256,-412,15701,511,573,-80
-256,-406,15702,511,568,-80
-256,-402,15953,256,567,-79
-256,-390,15951,256,573,-81
-256,-390,15948,256,574,-77
-256,-389,15694,511,574,-75
-256,-392,15690,511,577,-75
-256,-405,15948,256,577,-77
-256,-414,15692,511,578,-78
-256,-416,15698,511,581,-76
-256,-406,15714,511,582,-76
-256,-410,15714,511,580,-74
-256,-393,15962,256,577,-73
-256,-377,15709,511,575,-74
-256,-394,15715,511,572,-73
-256,-397,15713,511,578,-71
-256,-396,15706,511,581,-70
-256,-390,15718,511,580,-75
-256,-395,15707,511,579,-74
-256,-396,15698,511,582,-78
-256,-390,15704,511,573,-78
-256,-388,15699,511,574,-75
-256,-386,15951,256,576,-76
-256,-378,15946,256,570,-72
-256,-371,15931,256,571,-70
-256,-391,15941,256,575,-71
-256,-397,15951,256,576,-75
-256,-404,15943,256,571,-77
-256,-410,15952,256,572,-74
-256,-404,15963,256,572,-72
-256,-410,15715,511,572,-69
-256,-415,15708,511,577,-70
-256,-402,15710,511,578,-71
-256,-407,15726,511,583,-72
-256,-410,15729,511,589,-71
-256,-398,15717,511,586,-70
-256,-392,15709,511,579,-69
-256,-391,15699,511,577,-75
-256,-403,15701,511,575,-77
-256,-400,15700,511,581,-74
-256,-395,15967,256,580,-75
-256,-394,15969,256,578,-72
-256,-402,15957,256,577,-75
-256,-407,15953,256,578,-79
-256,-402,15965,256,577,-82
-256,-390,15972,256,581,-78
-256,-380,15971,256,579,-75
-256,-382,15964,256,571,-74
-256,-398,15961,256,571,-71
-256,-391,15709,511,578,-74
-256,-385,15963,256,581,-70
-256,-392,15961,256,582,-71
-256,-391,15714,511,586,-74
-256,-387,15709,511,584,-79
-256,-390,15709,511,581,-76
-256,-398,15708,511,580,-72
-256,-394,15714,511,579,-74
-256,-396,15706,511,580,-76
-256,-402,15700,511,582,-75
-256,-404,15700,511,581,-73
-256,-400,15707,511,580,-79
-256,-397,15707,511,583,-78
-256,-398,15701,511,583,-77
-256,-403,15707,511,579,-74
-256,-413,15707,511,573,-74
-256,-413,15719,511,576,-71
-256,-402,15719,511,574,-72
-256,-398,15726,511,572,-73
-256,-394,15734,511,575,-72
-256,-391,15728,511,572,-72
-256,-386,15729,511,573,-72
-256,-396,15722,511,577,-79
-256,-401,15731,511,577,-81
-256,-389,15727,511,577,-75
-256,-396,15721,511,573,-75
-256,-389,15726,511,575,-78
-256,-387,15724,511,578,-76
-256,-396,15722,511,580,-74
-256,-394,15708,511,578,-70
-256,-401,15706,511,578,-73
-256,-400,15702,511,580,-77
-256,-394,15708,511,575,-76
-256,-398,15705,511,575,-77
-256,-396,15713,511,576,-75
-256,-394,15708,511,579,-75
-256,-391,15702,511,582,-76
-256,-372,15700,511,581,-72
-256,-368,15696,511,580,-75
-256,-375,15708,511,581,-78
-256,-377,15717,511,576,-73
-256,-386,15713,511,574,-72
-256,-386,15715,511,574,-71
-256,-389,15707,511,576,-70
-256,-386,15699,511,581,-78
-256,-383,15696,511,578,-77
-256,-379,15696,511,576,-78
-256,-379,15699,511,573,-78
-256,-382,15699,511,569,-77
-256,-390,15711,511,565,-75
-256,-396,15977,256,569,-76
-256,-405,15722,511,573,-74
-256,-412,15722,511,573,-70
-256,-408,15725,511,570,-73
-256,-415,15729,511,572,-71
-256,-414,15737,511,574,-70
-256,-402,15734,511,571,-71
-256,-406,15723,511,572,-73
-256,-399,15722,511,575,-68
-256,-390,15723,511,576,-67
-256,-378,15724,511,572,-67
-256,-382,15713,511,573,-66
-256,-394,15726,511,571,-72
-256,-393,15727,511,571,-75
-256,-392,15723,511,571,-72
-256,-395,15719,511,571,-74
-256,-395,15718,511,569,-78
-256,-391,15713,511,570,-78
-256,-390,15715,511,570,-78
-256,-383,15705,511,570,-76
-256,-387,15713,511,570,-74
-256,-396,15709,511,571,-71
-256,-401,15715,511,572,-67
-256,-395,15710,511,570,-65
-256,-390,15708,511,569,-64
-256,-395,15964,256,573,-62
-256,-398,15964,256,574,-66
-256,-395,15960,256,571,-70
-256,-383,15959,256,569,-71
-256,-392,15961,256,573,-70
-256,-390,15966,256,576,-68
-256,-389,15711,511,576,-66
-256,-385,15713,511,576,-70
-256,-394,15721,511,572,-72
-256,-405,15730,511,575,-69
-256,-397,15727,511,579,-70
-256,-399,15729,511,584,-69
-256,-399,15725,511,580,-70
-256,-403,15728,511,576,-72
-256,-408,15718,511,577,-75
-256,-405,15712,511,576,-76
-256,-413,15705,511,571,-79
-256,-418,15709,511,571,-73
-256,-407,15707,511,575,-76
-256,-408,15710,511,575,-82
-256,-410,15970,256,575,-77
-256,-415,15726,511,579,-76
-256,-407,15730,511,586,-77
-256,-409,15982,256,588,-78
-256,-413,15980,256,584,-76
-256,-421,15727,511,577,-76
-256,-411,15720,511,573,-77
-256,-415,15720,511,572,-80
-256,-418,15717,511,562,-79
-256,-421,15716,511,561,-78
-256,-408,15712,511,562,-79
-256,-401,15708,511,563,-76
-256,-394,15717,511,562,-74
-256,-413,15719,511,562,-76
-256,-413,15720,511,563,-74
-256,-412,15713,511,565,-76
-256,-410,15714,511,566,-78
-256,-402,15720,511,569,-80
-256,-406,15716,511,566,-82
-256,-409,15714,511,566,-78
-256,-409,15718,511,566,-79
-256,-399,15721,511,568,-78
-256,-398,15728,511,572,-72
-256,-388,15727,511,573,-66
-256,-396,15712,511,571,-67
-256,-401,15711,511,574,-61
-256,-399,15713,511,578,-60
-256,-396,15704,511,581,-60
-256,-389,15693,511,583,-66
-256,-389,15700,511,580,-72
-256,-398,15707,511,575,-76
-256,-413,15708,511,579,-78
-256,-407,15714,511,581,-76
-256,-405,15720,511,577,-76
-256,-404,15717,511,569,-74
-256,-408,15720,511,566,-72
-256,-412,15723,511,567,-71
-256,-412,15722,511,568,-71
-256,-413,15701,511,568,-74
-256,-402,15693,511,570,-73
-256,-406,15691,511,572,-78
-256,-405,15707,511,570,-81
-256,-400,15710,511,567,-74
-256,-404,15697,511,564,-71
-256,-405,15684,511,566,-67
-256,-407,15695,511,569,-64
-256,-400,15699,511,570,-65
-256,-401,15709,511,570,-63
-256,-395,15713,511,567,-69
-256,-400,15727,511,569,-71
-256,-406,15716,511,572,-72
-256,-394,15701,511,572,-79
-256,-394,15695,511,572,-74
-256,-382,15702,511,575,-70
-256,-376,15703,511,577,-71
-256,-382,15966,256,576,-72
-256,-383,15974,256,575,-76
-256,-387,15977,256,579,-77
-256,-393,15969,256,576,-73
-256,-397,15701,511,577,-69
-256,-396,15694,511,577,-69
-256,-397,15694,511,581,-66
-256,-405,15701,511,575,-70
-256,-410,15708,511,577,-71
-256,-406,15700,511,582,-70
-256,-402,15701,511,579,-70
-256,-396,15700,511,580,-74
-256,-385,15716,511,578,-73
-256,-386,15723,511,584,-73
-256,-383,15718,511,582,-78
-256,-384,15723,511,581,-77
-256,-391,15726,511,584,-77
-256,-401,15734,511,584,-72
-256,-397,15731,511,583,-75
-256,-394,15735,511,581,-77
-256,-389,15726,511,580,-78
-256,-385,15720,511,581,-76
-256,-390,15720,511,579,-73
-256,-384,15970,256,579,-76
-256,-394,15712,511,582,-78
-256,-388,15712,511,580,-71
-256,-390,15711,511,578,-74
-256,-384,15708,511,574,-73
-256,-371,15709,511,577,-68
-256,-372,15957,256,580,-69
-256,-372,15953,256,579,-76
-256,-380,15956,256,574,-75
-256,-388,15944,256,571,-75
-256,-388,15678,511,571,-79
-256,-386,15683,511,572,-79
-256,-389,15685,511,570,-80
-256,-394,15691,511,571,-77
-256,-392,15700,511,571,-74
-256,-394,15696,511,569,-68
-256,-400,15704,511,571,-69
-256,-395,15712,511,574,-71
-256,-399,15728,511,574,-74
-256,-399,15721,511,573,-73
-256,-414,15718,511,572,-79
-256,-412,15711,511,570,-76
-256,-416,15955,256,569,-78
-256,-403,15960,256,571,-76
-256,-399,15946,256,571,-77
-256,-392,15932,256,572,-82
-256,-403,15943,256,571,-81
-256,-404,15947,256,572,-77
-256,-412,15962,256,572,-81
-256,-406,15979,256,572,-88
-256,-410,15719,511,575,-86
-256,-407,15713,511,572,-81
-256,-393,15982,256,574,-74
-256,-388,15734,511,579,-69
-256,-389,15739,511,579,-77
-256,-392,15739,511,578,-74
-256,-404,15721,511,579,-76
-256,-405,15712,511,580,-75
-256,-409,15720,511,580,-75
-256,-402,15706,511,580,-71
-256,-399,15703,511,575,-71
-256,-409,15706,511,574,-75
-256,-406,15706,511,576,-78
-256,-388,15715,511,574,-78
-256,-399,15721,511,574,-79
-256,-401,15722,511,576,-83
-256,-405,15712,511,579,-83
-256,-420,15729,511,580,-81
-256,-410,15701,511,576,-77
-256,-402,15695,511,581,-72
-256,-403,15705,511,578,-75
-256,-404,15711,511,577,-78
-256,-405,15705,511,576,-76
-256,-397,15703,511,578,-79
-256,-411,15705,511,578,-80
-256,-411,15705,511,577,-81
-256,-406,15696,511,579,-78
-256,-399,15701,511,577,-82
-256,-392,15704,511,579,-84
-256,-384,15715,511,578,-78
-256,-368,15717,511,578,-76
-256,-354,15717,511,577,-79
-256,-364,15982,256,575,-80
-256,-386,15981,256,573,-80
-256,-387,15977,256,575,-83
-256,-384,15977,256,580,-79
-256,-388,15985,256,578,-75
-256,-397,15977,256,578,-79
-256,-398,15985,256,577,-82
-256,-385,15989,256,579,-82
-256,-388,15987,256,578,-81
-256,-375,15736,511,573,-83
-256,-385,15725,511,576,-82
-256,-397,15720,511,579,-76
-256,-391,15720,511,579,-71
-256,-384,15721,511,576,-71
-256,-381,15723,511,577,-72
-256,-394,15720,511,580,-74
-256,-392,15706,511,582,-74
-256,-388,15712,511,582,-77
-256,-385,15703,511,581,-77
-256,-390,15971,256,579,-73
-256,-405,15714,511,575,-70
-256,-405,15710,511,576,-69
-256,-402,15703,511,574,-67
-256,-394,15712,511,572,-71
-256,-393,15716,511,570,-69
-256,-401,15722,511,570,-71
-256,-395,15713,511,573,-69
-256,-400,15702,511,573,-66
-256,-400,15701,511,574,-66
-256,-394,15705,511,572,-72
-256,-403,15709,511,569,-72
-256,-406,15970,256,571,-68
-256,-400,15720,511,572,-72
-256,-383,15720,511,574,-74
-256,-384,15970,256,575,-77
-256,-389,15973,256,575,-72
-256,-387,15712,511,575,-73
-256,-376,15707,511,572,-74
-256,-395,15705,511,568,-74
-256,-410,15708,511,568,-70
-256,-402,15707,511,571,-73
-256,-400,15704,511,578,-73
-256,-399,15712,511,582,-75
-256,-401,15716,511,587,-75
-256,-395,15714,511,584,-80
-256,-385,15719,511,581,-81
-256,-381,15725,511,583,-76
-256,-379,15723,511,580,-79
-256,-370,15717,511,577,-81
-256,-373,15718,511,578,-81
-256,-376,15718,511,577,-78
-256,-368,15724,511,576,-71
-256,-373,15717,511,576,-75
-256,-373,15716,511,578,-84
-256,-377,15702,511,575,-77
-256,-377,15709,511,575,-77
-256,-380,15718,511,574,-83
-256,-387,15709,511,576,-77
-256,-396,15703,511,579,-78
-256,-400,15696,511,577,-76
-256,-402,15686,511,578,-71
-256,-398,15688,511,573,-71
-256,-383,15697,511,568,-72
-256,-376,15701,511,570,-74
-256,-382,15710,511,572,-74
-256,-394,15715,511,576,-77
-256,-388,15709,511,575,-72
-256,-388,15714,511,573,-72
-256,-385,15710,511,570,-75
-256,-378,15715,511,566,-75
-256,-376,15727,511,567,-73
-256,-383,15719,511,567,-77
-256,-387,15714,511,569,-81
-256,-394,15718,511,572,-77
-256,-399,15978,256,574,-76
-256,-392,15710,511,574,-78
-256,-390,15708,511,573,-75
-256,-395,15703,511,572,-71
-256,-402,15698,511,572,-72
-256,-404,15698,511,571,-75
-256,-405,15701,511,568,-72
-256,-407,15705,511,567,-68
-256,-410,15711,511,570,-67
-256,-402,15710,511,573,-70
-256,-419,15972,256,571,-71
-256,-408,15716,511,569,-73
-256,-416,15963,256,569,-74
-256,-422,15961,256,572,-72
-256,-413,15952,256,572,-75
-256,-418,15716,511,570,-71
-256,-414,15720,511,572,-70
-256,-417,15711,511,577,-68
-256,-415,15714,511,576,-66
-256,-421,15710,511,572,-67
-256,-415,15712,511,574,-71
-256,-404,15716,511,577,-76
-256,-402,15723,511,575,-70
-256,-391,15728,511,576,-72
-256,-381,15729,511,573,-77
-256,-394,15973,256,574,-73
-256,-392,15968,256,577,-76
-256,-392,15710,511,575,-75
-256,-386,15714,511,573,-81
-256,-385,15711,511,572,-85
-256,-385,15965,256,573,-85
-256,-390,15966,256,572,-86
-256,-393,15975,256,577,-76
-256,-397,15716,511,580,-74
-256,-401,15722,511,577,-77
-256,-397,15730,511,576,-76
-256,-398,15728,511,573,-78
-256,-393,15728,511,574,-80
-256,-401,15727,511,576,-73
-256,-403,15716,511,579,-73
-256,-388,15719,511,573,-79
-256,-390,15716,511,577,-77
-256,-401,15719,511,578,-76
-256,-392,15720,511,578,-81
-256,-394,15726,511,582,-80
-256,-388,15723,511,582,-78
-256,-380,15722,511,584,-79
-256,-392,15725,511,582,-81
-256,-402,15719,511,578,-78
-256,-402,15718,511,576,-71
-256,-400,15726,511,573,-74
-256,-387,15727,511,575,-78
-256,-394,15715,511,575,-79
-256,-399,15705,511,575,-78
-256,-412,15705,511,580,-79
-256,-403,15706,511,581,-79
-256,-417,15713,511,578,-73
-256,-418,15720,511,575,-77
-256,-410,15712,511,573,-79
-256,-408,15722,511,577,-78
-256,-401,15726,511,573,-80
-256,-407,15724,511,571,-71
-256,-407,15709,511,566,-70
-256,-411,15705,511,563,-72
-256,-423,15709,511,566,-78
-256,-418,15714,511,566,-76
-256,-410,15713,511,566,-73
-256,-402,15716,511,565,-76
-256,-397,15710,511,569,-76
-256,-392,15709,511,571,-77
-256,-380,15696,511,571,-81
-256,-377,15698,511,570,-83
-256,-360,15702,511,570,-80
-256,-377,15699,511,567,-83
-256,-392,15699,511,570,-81
-256,-396,15693,511,574,-78
-256,-394,15704,511,574,-78
-256,-390,15706,511,575,-84
-256,-377,15711,511,578,-82
-256,-378,15716,511,582,-75
-256,-385,15703,511,582,-71
-256,-388,15696,511,582,-70
-256,-391,15697,511,575,-71
-256,-383,15719,511,576,-69
-256,-382,15713,511,575,-67
-256,-394,15716,511,578,-63
-256,-398,15712,511,578,-60
-256,-412,15712,511,575,-64
-256,-415,15719,511,572,-66
-256,-419,15712,511,572,-61
-256,-418,15710,511,574,-63
-256,-417,15703,511,577,-67
-256,-401,15695,511,578,-69
-256,-393,15966,256,578,-68
-256,-384,15729,511,576,-70
-256,-400,15737,511,578,-70
-256,-409,15726,511,579,-71
-256,-413,15716,511,577,-73
-256,-411,15711,511,580,-68
-256,-416,15710,511,578,-75
-256,-411,15713,511,581,-77
-256,-414,15710,511,585,-70
-256,-411,15717,511,581,-68
-256,-412,15723,511,577,-69
-256,-410,15738,511,575,-70
-256,-403,15745,511,573,-70
-256,-406,15740,511,567,-73
-256,-406,15733,511,568,-75
-256,-396,15722,511,567,-74
-256,-397,15725,511,570,-74
-256,-395,15720,511,573,-70
-256,-392,15715,511,571,-76
-256,-378,15714,511,571,-79
-256,-373,15722,511,573,-81
-256,-374,15724,511,575,-80
-256,-383,15720,511,574,-80
-256,-384,15738,511,575,-80
-256,-387,15742,511,573,-76
-256,-387,15733,511,574,-73
-256,-380,15728,511,572,-72
-256,-383,15722,511,573,-76
-256,-379,15714,511,570,-77
-256,-378,15713,511,571,-78
-256,-372,15711,511,569,-81
-256,-389,15710,511,568,-83
-256,-397,15722,511,564,-84
-256,-393,15732,511,564,-88
-256,-403,15738,511,565,-89
-256,-399,15728,511,570,-83
-256,-401,15715,511,572,-78
-256,-397,15714,511,571,-79
-256,-399,15715,511,574,-87
-256,-400,15720,511,576,-84
-256,-420,15713,511,576,-82
-256,-427,15704,511,580,-85
-256,-426,15713,511,580,-83
-256,-411,15714,511,575,-84
-256,-406,15970,256,574,-78
-256,-396,15711,511,573,-79
-256,-394,15713,511,572,-78
-256,-392,15729,511,575,-69
-256,-391,15723,511,581,-66
-256,-384,15711,511,583,-65
-256,-384,15720,511,579,-68
-256,-400,15725,511,577,-65
-256,-400,15721,511,580,-71
-256,-407,15722,511,576,-75
-256,-403,15717,511,575,-77
-256,-404,15714,511,575,-80
-256,-397,15711,511,574,-80
-256,-390,15709,511,574,-77
-256,-390,15706,511,574,-74
-256,-394,15700,511,575,-70
-256,-401,15698,511,573,-68
-256,-397,15703,511,574,-67
-256,-386,15705,511,574,-68
-256,-383,15714,511,574,-69
-256,-387,15714,511,572,-76
-256,-392,15707,511,574,-76
-256,-386,15708,511,574,-70
-256,-383,15706,511,578,-77
-256,-389,15709,511,579,-75
-256,-386,15724,511,577,-71
-256,-391,15721,511,575,-73
-256,-401,15717,511,573,-73
-256,-401,15720,511,574,-72
-256,-402,15701,511,575,-71
-256,-398,15706,511,576,-75
-256,-399,15720,511,580,-76
-256,-393,15713,511,578,-75
-256,-394,15711,511,573,-73
-256,-399,15979,256,575,-71
-256,-397,15981,256,574,-72
-256,-392,15977,256,577,-76
-256,-391,15718,511,580,-77
-256,-387,15976,256,581,-77
-256,-407,15963,256,578,-75
-256,-407,15688,511,574,-71
-256,-404,15946,256,574,-74
-256,-394,15963,256,576,-72
-256,-402,15708,511,574,-74
-256,-382,15706,511,573,-71
-256,-387,15703,511,577,-66
-256,-385,15701,511,576,-63
-256,-394,15699,511,576,-59
-256,-393,15699,511,578,-61
-256,-400,15952,256,578,-65
-256,-393,15708,511,575,-66
-256,-381,15707,511,576,-63
-256,-373,15707,511,580,-67
-256,-372,15711,511,580,-67
-256,-379,15709,511,579,-71
-256,-388,15710,511,582,-76
-256,-394,15714,511,583,-73
-256,-388,15975,256,582,-71
-256,-389,15727,511,579,-75
-256,-382,15737,511,575,-79
-256,-397,16005,256,580,-78
-256,-391,16000,256,577,-78
-256,-391,15735,511,574,-75
-256,-397,15738,511,572,-75
-256,-392,15732,511,574,-72
-256,-389,15724,511,576,-72
-256,-403,15725,511,573,-72
-256,-403,15713,511,570,-74
-256,-402,15708,511,570,-79
-256,-402,15705,511,570,-80
-256,-401,15707,511,568,-70
-256,-390,15704,511,569,-71
-256,-386,15700,511,574,-76
-256,-385,15961,256,577,-75
-256,-380,15970,256,573,-75
-256,-381,15969,256,570,-70
-256,-370,15975,256,571,-71
-256,-369,15719,511,567,-71
-256,-384,15982,256,571,-73
-256,-380,15974,256,577,-73
-256,-381,15962,256,576,-75
-256,-386,15971,256,575,-74
-256,-385,15982,256,573,-74
-256,-389,15982,256,574,-71
-256,-410,15983,256,577,-73
-256,-410,15715,511,572,-72
-256,-401,15710,511,574,-72
-256,-399,15979,256,576,-75
-256,-392,15726,511,579,-79
-256,-397,15721,511,583,-72
-256,-397,15721,511,579,-73
-256,-404,15714,511,578,-74
-256,-397,15703,511,582,-73
-256,-400,15704,511,585,-75
-256,-397,15705,511,584,-76
-256,-378,15713,511,578,-73
-256,-376,15711,511,576,-72
-256,-384,15715,511,575,-77
-256,-388,15719,511,580,-78
-256,-382,15719,511,584,-73
-256,-381,15710,511,582,-67
-256,-394,15713,511,579,-64
-256,-404,15714,511,578,-71
-256,-404,15718,511,574,-73
-256,-399,15714,511,569,-76
-256,-396,15717,511,568,-75
-256,-390,15707,511,574,-78
-256,-389,15699,511,578,-76
-256,-385,15710,511,575,-75
-256,-388,15719,511,573,-72
-256,-397,15979,256,577,-75
-256,-392,15976,256,575,-76
-256,-387,15972,256,575,-78
-256,-382,15971,256,576,-79
-256,-381,15970,256,576,-78
-256,-384,15986,256,580,-77
-256,-389,15982,256,582,-76
-256,-393,15992,256,578,-78
-256,-389,15991,256,576,-82
-256,-393,15727,511,573,-82
-256,-399,15727,511,576,-78
-256,-388,15719,511,579,-79
-256,-383,15719,511,580,-78
-256,-385,15709,511,578,-72
-256,-385,15693,511,571,-74
-256,-380,15697,511,574,-74
-256,-388,15701,511,582,-71
-256,-395,15700,511,579,-73
-256,-397,15692,511,575,-74
-256,-390,15697,511,577,-75
-256,-404,15713,511,573,-79
-256,-406,15720,511,572,-78
-256,-399,15724,511,575,-82
-256,-398,15729,511,581,-79
-256,-390,15726,511,580,-79
-256,-398,15695,511,580,-78
-256,-392,15694,511,581,-76
-256,-391,15690,511,583,-73
-256,-381,15703,511,578,-71
-256,-380,15708,511,571,-72
-256,-388,15710,511,576,-70
-256,-392,15705,511,578,-74
-256,-387,15696,511,578,-80
-256,-395,15700,511,572,-71
-256,-394,15688,511,564,-72
-256,-393,15954,256,566,-74
-256,-400,15959,256,571,-72
-256,-393,15706,511,571,-78
-256,-398,15712,511,570,-78
-256,-397,15692,511,566,-73
-256,-403,15939,256,566,-82
-256,-406,15701,511,569,-87
-256,-392,15698,511,568,-77
-256,-393,15957,256,570,-75
-256,-389,15959,256,570,-75
-256,-394,15965,256,572,-74
-256,-390,15960,256,573,-75
-256,-393,15700,511,573,-77
-256,-401,15707,511,572,-79
-256,-400,15715,511,575,-81
-256,-397,15708,511,580,-81
-256,-399,15974,256,580,-82
-256,-397,15980,256,580,-83
-256,-397,15716,511,576,-83
-256,-394,15977,256,577,-84
-256,-390,15976,256,580,-81
-256,-390,15982,256,580,-77
-256,-390,15715,511,586,-80
-256,-398,15721,511,584,-71
-256,-412,15725,511,585,-69
-256,-412,15717,511,585,-79
-256,-412,15704,511,585,-79
-256,-399,15694,511,585,-79
-256,-396,15690,511,582,-81
-256,-401,15701,511,574,-76
-256,-389,15700,511,571,-84
-256,-386,15696,511,575,-86
-256,-379,15705,511,574,-87
-256,-373,15713,511,574,-88
-256,-378,15725,511,573,-84
-256,-386,15725,511,567,-83
-256,-401,15725,511,567,-74
-256,-397,15727,511,567,-73
-256,-385,15723,511,567,-73
-256,-384,15733,511,572,-68
-256,-393,15737,511,574,-69
-256,-403,15740,511,575,-69
-256,-393,15987,256,581,-74
-256,-393,15725,511,580,-73
-256,-393,15720,511,577,-71
-256,-395,15716,511,579,-71
-256,-390,15708,511,575,-72
-256,-389,15703,511,572,-72
-256,-396,15707,511,572,-73
-256,-408,15707,511,579,-72
-256,-414,15701,511,580,-69
-256,-427,15965,256,580,-70
-256,-433,15966,256,578,-72
-256,-424,15973,256,579,-71
-256,-419,15972,256,578,-70
-256,-409,15708,511,572,-72
-256,-399,15704,511,574,-73
-256,-398,15700,511,577,-72
-256,-402,15694,511,575,-66
-256,-410,15955,256,579,-67
-256,-424,15962,256,580,-68
-256,-422,15961,256,573,-68
-256,-420,15960,256,577,-73
-256,-417,15689,511,577,-69
-256,-413,15945,256,577,-66
-256,-410,15964,256,577,-75
-256,-399,15720,511,575,-71
-256,-397,15727,511,573,-71
-256,-397,15724,511,574,-70
-256,-401,15716,511,578,-73
-256,-390,15714,511,577,-77
-256,-405,15720,511,575,-78
-256,-404,15715,511,573,-81
-256,-396,15721,511,574,-82
-256,-397,15725,511,569,-82
-256,-392,15715,511,572,-78
-256,-401,15721,511,575,-79
-256,-397,15720,511,576,-76
-256,-387,15717,511,575,-76
-256,-389,15716,511,575,-73
-256,-402,15716,511,575,-71
-256,-394,15717,511,576,-71
-256,-388,15722,511,581,-72
-256,-413,15962,256,576,-70
-256,-411,15711,511,572,-71
-256,-411,15710,511,574,-72
-256,-398,15709,511,579,-68
-256,-396,15705,511,579,-68
-256,-388,15704,511,582,-67
-256,-400,15705,511,583,-68
-256,-394,15698,511,574,-69
-256,-389,15707,511,574,-70
-256,-383,15691,511,574,-70
-256,-377,15686,511,576,-70
-256,-385,15690,511,576,-77
-256,-393,15693,511,577,-77
-256,-389,15689,511,579,-75
-256,-381,15960,256,579,-82
-256,-369,15963,256,576,-76
-256,-374,15703,511,574,-78
-256,-375,15716,511,578,-80
-256,-389,15728,511,579,-80
-256,-394,15727,511,579,-79
-256,-401,15721,511,576,-80
-256,-394,15722,511,576,-77
-256,-393,15724,511,575,-77
-256,-394,15712,511,577,-78
-256,-401,15709,511,582,-78
-256,-404,15713,511,581,-74
-256,-403,15724,511,582,-73
-256,-412,15717,511,577,-72
-256,-395,15719,511,576,-76
-256,-403,15718,511,576,-75
-256,-404,15978,256,578,-78
-256,-403,15976,256,577,-77
-256,-410,15715,511,579,-79
-256,-411,15975,256,578,-79
-256,-401,15973,256,576,-80
-256,-398,15965,256,574,-85
-256,-389,15707,511,573,-80
-256,-381,15708,511,568,-76
-256,-384,15705,511,572,-71
-256,-392,15704,511,577,-76
-256,-386,15696,511,581,-76
-256,-382,15706,511,577,-77
-256,-382,15702,511,574,-74
-256,-388,15700,511,578,-70
-256,-399,15957,256,579,-70
-256,-401,15958,256,580,-75
-256,-402,15964,256,580,-79
-256,-406,15969,256,577,-78
-256,-412,15972,256,573,-78
-256,-408,15968,256,574,-80
-256,-411,15721,511,571,-81
-256,-405,15722,511,574,-78
-256,-396,15723,511,571,-73
-256,-397,15722,511,568,-73
-256,-399,15710,511,570,-74
-256,-400,15712,511,566,-73
-256,-390,15713,511,570,-75
-256,-392,15708,511,574,-72
-256,-399,15710,511,575,-70
-256,-403,15716,511,579,-69
-256,-409,15718,511,577,-63
-256,-407,15976,256,577,-71
-256,-412,15704,511,577,-76
-256,-412,15695,511,580,-81
-256,-404,15702,511,581,-79
-256,-395,15699,511,584,-74
-256,-392,15702,511,585,-70
-256,-388,15709,511,583,-66
-256,-393,15703,511,576,-67
-256,-393,15698,511,572,-70
-256,-403,15700,511,567,-76
-256,-410,15721,511,568,-76
-256,-397,15724,511,568,-77
-256,-399,15722,511,568,-77
-256,-392,15725,511,570,-76
-256,-391,15731,511,575,-76
-256,-386,15732,511,573,-81
-256,-374,15738,511,572,-80
-256,-378,15746,511,571,-79
-256,-386,15739,511,567,-82
-256,-392,15723,511,573,-79
-256,-405,15716,511,568,-76
-256,-400,15707,511,571,-77
-256,-395,15970,256,572,-75
-256,-398,15976,256,570,-80
-256,-401,15710,511,574,-83
-256,-409,15708,511,581,-82
-256,-410,15976,256,573,-80
-256,-401,15715,511,577,-74
-256,-399,15712,511,579,-73
-256,-398,15727,511,579,-72
-256,-396,15723,511,576,-73
-256,-392,15725,511,575,-75
-256,-397,15708,511,573,-69
-256,-398,15708,511,573,-71
-256,-408,15711,511,574,-75
-256,-417,15708,511,577,-75
-256,-415,15968,256,574,-76
-256,-416,15984,256,572,-76
-256,-416,15726,511,574,-77
-256,-421,15715,511,579,-76
-256,-419,15718,511,583,-73
-256,-411,15715,511,581,-75
-256,-409,15707,511,576,-79
-256,-420,15704,511,573,-78
-256,-420,15708,511,573,-76
-256,-417,15699,511,579,-76
-256,-411,15700,511,580,-77
-256,-407,15706,511,577,-76
-256,-406,15965,256,579,-72
-256,-400,15719,511,583,-71
-256,-390,15724,511,583,-72
-256,-390,15716,511,579,-69
-256,-392,15718,511,567,-73
-256,-390,15711,511,566,-76
-256,-370,15717,511,566,-77
-256,-376,15710,511,570,-75
-256,-384,15720,511,572,-78
-256,-382,15708,511,577,-82
-256,-380,15694,511,577,-80
-256,-375,15684,511,577,-77
-256,-370,15684,511,581,-79
-256,-370,15692,511,576,-79
-256,-378,15705,511,578,-73
-256,-374,15700,511,579,-71
-256,-377,15710,511,580,-75
-256,-382,15718,511,578,-71
-256,-378,15709,511,574,-67
-256,-374,15713,511,571,-66
-256,-371,15712,511,572,-69
-256,-382,15715,511,575,-72
-256,-379,15707,511,576,-74
-256,-395,15718,511,578,-74
-256,-403,15724,511,578,-78
-256,-403,15729,511,580,-77
-256,-406,15728,511,580,-75
-256,-405,15725,511,582,-76
-256,-406,15718,511,579,-80
-256,-403,15715,511,578,-81
-256,-398,15719,511,578,-78
-256,-393,15720,511,576,-77
-256,-378,15703,511,573,-71
-256,-377,15699,511,573,-67
-256,-378,15708,511,570,-71
-256,-380,15712,511,566,-75
-256,-377,15709,511,566,-75
-256,-382,15723,511,567,-76
-256,-378,15743,511,570,-76
-256,-389,15747,511,570,-71
-256,-384,15741,511,582,-73
-256,-381,15736,511,590,-74
-256,-385,15733,511,589,-71
-256,-389,15729,511,589,-66
-256,-392,15725,511,591,-68
-256,-388,15722,511,590,-74
-256,-387,15719,511,585,-73
-256,-394,15720,511,584,-75
-256,-389,15723,511,581,-70
-256,-387,15724,511,579,-68
-256,-380,15714,511,577,-71
-256,-374,15710,511,576,-64
-256,-386,15705,511,574,-66
-256,-392,15718,511,574,-71
-256,-387,15724,511,566,-68
-256,-377,15720,511,570,-74
-256,-371,15724,511,573,-76
-256,-373,15721,511,574,-81
-256,-376,15971,256,572,-79
-256,-368,15969,256,573,-81
-256,-373,15965,256,574,-76
-256,-378,15966,256,576,-74
-256,-377,15710,511,573,-74
-256,-373,15715,511,571,-74
-256,-385,15719,511,566,-82
-256,-396,15729,511,565,-78
-256,-399,15723,511,564,-77
-256,-390,15719,511,566,-74
-256,-386,15715,511,567,-77
-256,-379,15712,511,572,-80
-256,-354,15703,511,571,-79
-256,-349,15708,511,568,-80
-256,-358,15703,511,571,-80
-256,-376,15711,511,571,-76
-256,-378,15714,511,571,-71
-256,-388,15710,511,575,-73
-256,-384,15718,511,579,-78
-256,-387,15729,511,578,-82
-256,-385,15725,511,574,-82
-256,-378,15720,511,573,-76
-256,-375,15713,511,573,-72
-256,-371,15722,511,578,-76
-256,-371,15718,511,576,-83
-256,-377,15709,511,575,-85
-256,-374,15717,511,578,-83
-256,-378,15718,511,575,-81
-256,-373,15726,511,574,-83
-256,-386,15717,511,573,-74
-256,-396,15717,511,578,-76
-256,-393,15706,511,581,-76
-256,-399,15702,511,578,-78
-256,-412,15710,511,576,-73
-256,-400,15713,511,579,-75
-256,-402,15710,511,579,-77
-256,-401,15719,511,578,-74
-256,-407,15723,511,573,-71
-256,-414,15971,256,566,-69
-256,-418,15967,256,567,-67
-256,-411,15965,256,569,-68
-256,-414,15973,256,573,-68
-256,-401,15987,256,576,-69
-256,-389,15726,511,577,-69
-256,-391,15723,511,578,-74
-256,-382,15726,511,577,-73
-256,-378,15725,511,577,-71
-256,-384,15966,256,577,-81
-256,-395,15963,256,578,-82
-256,-397,15698,511,578,-80
-256,-399,15695,511,580,-82
-256,-410,15691,511,580,-81
-256,-402,15698,511,580,-79
-256,-393,15698,511,584,-77
-256,-400,15695,511,583,-74
-256,-407,15703,511,575,-71
-256,-394,15698,511,574,-70
-256,-395,15703,511,578,-68
-256,-393,15699,511,576,-74
-256,-392,15701,511,576,-82
-256,-391,15706,511,582,-83
-256,-405,15715,511,583,-82
-256,-400,15722,511,578,-86
-256,-393,15715,511,580,-81
-256,-390,15712,511,583,-79
-256,-390,15715,511,585,-72
-256,-396,15726,511,581,-72
-256,-400,15721,511,578,-68
-256,-400,15714,511,575,-64
-256,-394,15717,511,576,-66
-256,-383,15709,511,584,-68
-256,-379,15703,511,583,-76
-256,-380,15718,511,582,-77
-256,-387,15709,511,584,-72
-256,-389,15716,511,585,-74
-256,-379,15730,511,581,-76
-256,-379,15725,511,574,-77
-256,-377,15723,511,576,-78
-256,-382,15731,511,580,-71
-256,-382,15724,511,582,-75
-256,-381,15720,511,581,-73
-256,-379,15721,511,582,-79
-256,-381,15721,511,581,-80
-256,-379,15714,511,576,-81
-256,-380,15703,511,575,-79
-256,-391,15706,511,574,-78
-256,-402,15712,511,578,-83
-256,-402,15705,511,579,-79
-256,-402,15695,511,579,-76
-256,-412,15693,511,581,-74
-256,-411,15699,511,577,-74
-256,-413,15700,511,576,-70
-256,-413,15705,511,575,-68
-256,-426,15704,511,571,-72
-256,-417,15707,511,574,-79
-256,-412,15719,511,577,-77
-256,-414,15715,511,577,-74
-256,-400,15717,511,580,-70
-256,-406,15724,511,578,-71
-256,-406,15722,511,572,-81
-256,-404,15712,511,569,-81
-256,-411,15713,511,570,-76
-256,-415,15710,511,566,-78
-256,-416,15700,511,568,-79
-256,-407,15698,511,574,-75
-256,-394,15709,511,573,-76
-256,-395,15708,511,571,-80
-256,-404,15703,511,572,-77
-256,-409,15705,511,577,-76
-256,-409,15697,511,583,-75
-256,-411,15698,511,588,-73
-256,-409,15699,511,585,-69
-256,-406,15708,511,582,-62
-256,-397,15708,511,579,-62
-256,-392,15963,256,581,-65
-256,-399,15715,511,580,-67
-256,-407,15718,511,579,-66
-256,-399,15723,511,583,-67
-256,-392,15719,511,576,-67
-256,-388,15715,511,576,-67
-256,-392,15727,511,579,-64
-256,-382,15725,511,583,-66
-256,-373,15736,511,580,-70
-256,-373,15734,511,576,-72
-256,-369,15730,511,576,-71
-256,-366,15727,511,577,-69
-256,-369,15713,511,574,-66
-256,-377,15727,511,572,-68
-256,-384,15727,511,579,-63
-256,-391,15726,511,575,-68
-256,-403,15979,256,569,-68
-256,-400,15721,511,569,-69
-256,-387,15715,511,570,-71
-256,-382,15981,256,572,-73
-256,-377,15720,511,579,-77
-256,-365,15985,256,579,-79
-256,-375,15729,511,573,-77
-256,-380,15728,511,574,-78
-256,-380,15726,511,578,-83
-256,-390,15723,511,578,-81
-256,-406,15720,511,570,-81
-256,-405,15721,511,569,-81
-256,-418,15724,511,571,-73
-256,-414,15731,511,574,-71
-256,-409,15738,511,578,-72
-256,-399,15729,511,575,-72
-256,-403,15730,511,577,-78
-256,-394,15723,511,577,-80
-256,-400,15721,511,579,-82
-256,-399,15725,511,580,-81
-256,-407,15731,511,577,-82
-256,-403,15727,511,575,-83
-256,-401,15719,511,575,-75
-256,-404,15717,511,572,-70
-256,-396,15716,511,575,-69
-256,-391,15727,511,576,-72
-256,-398,15716,511,573,-73
-256,-396,15714,511,575,-71
-256,-398,15720,511,576,-72
-256,-396,15725,511,577,-68
-256,-397,15723,511,574,-71
-256,-401,15730,511,575,-72
-256,-407,15725,511,578,-72
-256,-391,15720,511,577,-71
-256,-401,15716,511,581,-67
-256,-402,15714,511,580,-72
-256,-401,15702,511,579,-70
-256,-399,15709,511,578,-67
-256,-402,15714,511,573,-68
-256,-393,15713,511,575,-75
-256,-386,15714,511,578,-74
-256,-392,15724,511,578,-67
-256,-390,15722,511,579,-69
-256,-398,15721,511,579,-74
-256,-407,15725,511,579,-77
-256,-407,15724,511,579,-68
-256,-407,15733,511,580,-64
-256,-401,15725,511,577,-68
-256,-397,15717,511,574,-69
-256,-403,15709,511,575,-70
-256,-389,15710,511,573,-71
-256,-373,15710,511,576,-69
-256,-387,15714,511,576,-70
-256,-389,15725,511,578,-69
-256,-389,15725,511,578,-68
-256,-381,15716,511,580,-72
-256,-381,15720,511,581,-77
-256,-385,15714,511,581,-77
-256,-378,15710,511,583,-77
-256,-384,15702,511,583,-82
-256,-392,15715,511,579,-78
-256,-383,15715,511,580,-74
-256,-394,15729,511,582,-72
-256,-392,15727,511,583,-72
-256,-384,15732,511,585,-73
-256,-384,15732,511,585,-71
-256,-382,15716,511,583,-70
-256,-377,15715,511,582,-73
-256,-379,15721,511,579,-73
-256,-378,15718,511,576,-75
-256,-384,15713,511,578,-78
-256,-390,15712,511,575,-76
-256,-400,15705,511,575,-78
-256,-406,15707,511,574,-83
-256,-407,15704,511,575,-74
-256,-403,15716,511,573,-74
-256,-393,15708,511,571,-76
-256,-392,15719,511,577,-75
-256,-380,15981,256,582,-76
-256,-377,15733,511,578,-77
-256,-392,15989,256,572,-78
-256,-389,15974,256,577,-77
-256,-395,15979,256,580,-70
-256,-397,15729,511,575,-75
-256,-404,15722,511,578,-76
-256,-412,15716,511,578,-74
-256,-399,15707,511,584,-68
-256,-392,15711,511,578,-69
-256,-392,15715,511,579,-69
-256,-389,15714,511,585,-68
-256,-406,15711,511,581,-71
-256,-400,15703,511,580,-74
-256,-397,15699,511,580,-70
-256,-391,15698,511,580,-72
-256,-391,15705,511,578,-80
-256,-399,15702,511,571,-80
-256,-384,15700,511,570,-81
-256,-383,15952,256,576,-72
-256,-375,15691,511,577,-74
-256,-392,15691,511,573,-76
-256,-393,15691,511,572,-82
-256,-390,15700,511,576,-79
-256,-396,15704,511,575,-73
-256,-397,15708,511,573,-87
-256,-388,15722,511,575,-79
-256,-384,15729,511,579,-76
-256,-391,15724,511,574,-74
-256,-393,15725,511,572,-73
-256,-396,15725,511,573,-72
-256,-403,15725,511,573,-71
-256,-400,15717,511,576,-71
-256,-413,15717,511,574,-75
-256,-413,15721,511,568,-73
-256,-402,15718,511,567,-73
-256,-405,15720,511,568,-70
-256,-408,15721,511,574,-75
-256,-418,15725,511,576,-75
-256,-415,15723,511,578,-71
-256,-418,15716,511,578,-74
-256,-422,15705,511,570,-76
-256,-420,15707,511,570,-80
-256,-421,15714,511,568,-78
-256,-424,15965,256,570,-76
-256,-418,15704,511,568,-74
-256,-417,15705,511,571,-73
-256,-419,15712,511,576,-72
-256,-415,15717,511,575,-73
-256,-398,15707,511,578,-78
-256,-402,15692,511,574,-84
-256,-403,15950,256,579,-80
-256,-402,15705,511,579,-80
-256,-408,15711,511,573,-80
-256,-403,15710,511,574,-77
-256,-410,15702,511,579,-74
-256,-411,15717,511,580,-79
-256,-405,15712,511,580,-74
-256,-396,15713,511,576,-76
-256,-391,15713,511,576,-71
-256,-394,15709,511,576,-69
-256,-399,15707,511,573,-70
-256,-400,15712,511,576,-67
-256,-401,15705,511,576,-69
-256,-408,15691,511,577,-75
-256,-403,15695,511,578,-78
-256,-391,15702,511,575,-80
-256,-393,15695,511,573,-74
-256,-399,15697,511,576,-73
-256,-408,15704,511,577,-76
-256,-411,15703,511,577,-70
-256,-421,15704,511,575,-71
-256,-427,15709,511,575,-69
-256,-425,15708,511,579,-67
-256,-407,15705,511,583,-67
-256,-395,15723,511,581,-70
-256,-389,15717,511,578,-71
-256,-377,15730,511,577,-71
-256,-389,15720,511,573,-69
-256,-391,15715,511,571,-72
-256,-403,15707,511,575,-77
-256,-403,15705,511,580,-75
-256,-403,15713,511,577,-72
-256,-400,15714,511,575,-72
-256,-391,15705,511,576,-73
-256,-383,15715,511,575,-79
-256,-389,15722,511,572,-78
-256,-377,15727,511,575,-78
-256,-364,15729,511,579,-79
-256,-373,15725,511,582,-78
-256,-380,15719,511,586,-75
-256,-380,15729,511,582,-76
-256,-374,15730,511,579,-73
-256,-370,15730,511,573,-67
-256,-376,15714,511,575,-71
-256,-382,15716,511,575,-73
-256,-388,15727,511,583,-76
-256,-385,15723,511,584,-81
-256,-392,15714,511,582,-85
-256,-391,15707,511,580,-83
-256,-384,15708,511,582,-81
-256,-387,15701,511,583,-79
-256,-384,15709,511,580,-81
-256,-393,15698,511,580,-84
-256,-397,15699,511,583,-84
-256,-388,15688,511,588,-76
-256,-383,15946,256,584,-77
-256,-386,15941,256,579,-78
-256,-385,15942,256,582,-72
-256,-391,15954,256,578,-80
-256,-390,15961,256,573,-83
-256,-391,15702,511,570,-83
-256,-388,15709,511,572,-87
-256,-387,15976,256,573,-87
-256,-391,15986,256,575,-87
-256,-396,15988,256,576,-82
-256,-406,15735,511,574,-80
-256,-402,15742,511,571,-73
-256,-403,15730,511,571,-71
-256,-404,15739,511,575,-74
-256,-410,15734,511,573,-75
-256,-413,15737,511,570,-76
-256,-405,15733,511,572,-74
-256,-404,15732,511,572,-75
-256,-407,15729,511,574,-71
-256,-402,15729,511,576,-71
-256,-405,15715,511,577,-75
-256,-393,15706,511,575,-72
-256,-400,15703,511,572,-72
-256,-393,15715,511,574,-70
-256,-389,15715,511,576,-73
-256,-385,15725,511,576,-73
-256,-396,15731,511,580,-70
-256,-390,15726,511,578,-68
-256,-386,15733,511,579,-65
-256,-377,15745,511,576,-65
-256,-376,15744,511,572,-65
-256,-383,15732,511,568,-67
-256,-393,15734,511,570,-68
-256,-399,15736,511,576,-61
-256,-403,15732,511,581,-66
-256,-415,15733,511,576,-72
-256,-412,15723,511,574,-78
-256,-414,15726,511,574,-77
-256,-428,15722,511,575,-78
-256,-423,15717,511,576,-80
-256,-416,15713,511,579,-80
-256,-413,15720,511,582,-80
-256,-398,15973,256,584,-79
-256,-393,15710,511,584,-76
-256,-385,15719,511,584,-77
-256,-379,15983,256,583,-73
-256,-380,15723,511,588,-71
-256,-380,15720,511,586,-72
-256,-378,15720,511,582,-73
-256,-375,15727,511,579,-72
-256,-384,15719,511,583,-65
-256,-391,15729,511,583,-69
-256,-393,15734,511,587,-72
-256,-390,15733,511,588,-74
-256,-399,15734,511,589,-74
-256,-409,15732,511,590,-76
-256,-403,15720,511,585,-77
-256,-397,15726,511,581,-73
-256,-410,15730,511,584,-67
-256,-408,15722,511,582,-69
-256,-395,15732,511,583,-71
-256,-388,15743,511,585,-74
-256,-394,15731,511,584,-70
-256,-388,15719,511,583,-74
-256,-381,15709,511,582,-72
-256,-387,15712,511,581,-68
-256,-396,15712,511,579,-70
-256,-395,15707,511,581,-68
-256,-398,15718,511,578,-73
-256,-390,15711,511,582,-75
-256,-380,15706,511,585,-75
-256,-386,15706,511,587,-71
-256,-386,15715,511,585,-80
-256,-381,15974,256,584,-81
-256,-393,15726,511,577,-83
-256,-390,15728,511,576,-78
-256,-391,15723,511,577,-73
-256,-390,15727,511,579,-79
-256,-397,15727,511,577,-77
-256,-406,15723,511,577,-77
-256,-402,15722,511,579,-72
-256,-400,15718,511,577,-73
-256,-404,15712,511,580,-71
-256,-395,15719,511,579,-73
-256,-408,15722,511,573,-69
-256,-411,15716,511,577,-64
-256,-419,15709,511,578,-70
-256,-430,15711,511,575,-73
-256,-430,15716,511,581,-69
-256,-420,15726,511,580,-69
-256,-420,15712,511,579,-71
-256,-426,15714,511,576,-66
-256,-414,15712,511,577,-72
-256,-411,15715,511,578,-69
-256,-407,15711,511,581,-68
-256,-407,15698,511,580,-71
-256,-394,15697,511,581,-78
-256,-408,15961,256,579,-80
-256,-414,15707,511,577,-78
-256,-402,15709,511,572,-80
-256,-394,15704,511,575,-74
-256,-377,15705,511,576,-73
-256,-377,15709,511,574,-75
-256,-379,15714,511,570,-77
-256,-389,15712,511,573,-75
-256,-409,15709,511,575,-76
-256,-403,15708,511,578,-79
-256,-406,15702,511,576,-76
-256,-408,15701,511,576,-76
-256,-402,15699,511,575,-75
-256,-390,15695,511,583,-77
-256,-387,15691,511,583,-77
-256,-399,15688,511,583,-72
-256,-403,15688,511,581,-68
-256,-403,15699,511,577,-67
-256,-396,15709,511,577,-69
-256,-407,15704,511,578,-70
-256,-404,15704,511,579,-69
-256,-405,15702,511,584,-69
-256,-406,15696,511,582,-69
-256,-417,15694,511,578,-68
-256,-430,15697,511,580,-65
-256,-432,15705,511,581,-64
-256,-432,15705,511,579,-74
-256,-416,15701,511,577,-76
-256,-412,15697,511,579,-75
-256,-415,15953,256,581,-73
-256,-417,15959,256,584,-74
-256,-412,15963,256,583,-72
-256,-408,15970,256,579,-72
-256,-409,15976,256,579,-79
-256,-419,15977,256,579,-75
-256,-414,15724,511,581,-74
-256,-416,15721,511,579,-73
-256,-418,15726,511,579,-71
-256,-412,15727,511,578,-73
-256,-409,15722,511,576,-76
-256,-396,15714,511,577,-75
-256,-401,15716,511,577,-77
-256,-397,15720,511,573,-77
-256,-381,15726,511,577,-74
-256,-381,15729,511,576,-72
-256,-398,15715,511,578,-75
-256,-393,15719,511,581,-71
-256,-396,15724,511,578,-68
-256,-395,15729,511,575,-75
-256,-400,15985,256,572,-79
-256,-385,15985,256,577,-79
-256,-391,15717,511,582,-79
-256,-391,15724,511,581,-73
-256,-389,15724,511,577,-67
-256,-387,15724,511,579,-72
-256,-394,15717,511,583,-69
-256,-404,15702,511,583,-64
-256,-400,15701,511,582,-64
-256,-399,15701,511,576,-66
-256,-386,15698,511,579,-70
-256,-398,15705,511,578,-73
-256,-389,15709,511,575,-69
-256,-390,15705,511,581,-74
-256,-392,15707,511,583,-75
-256,-396,15705,511,580,-77
-256,-397,15706,511,580,-79
-256,-394,15717,511,581,-80
-256,-386,15720,511,581,-78
-256,-386,15723,511,582,-76
-256,-392,15708,511,580,-76
-256,-395,15718,511,576,-72
-256,-385,15713,511,576,-73
-256,-388,15713,511,575,-76
-256,-376,15715,511,575,-74
-256,-395,15719,511,572,-72
-256,-393,15714,511,570,-74
-256,-399,15717,511,572,-74
-256,-401,15718,511,579,-76
-256,-401,15703,511,575,-76
-256,-401,15697,511,577,-69
-256,-398,15698,511,581,-71
-256,-405,15705,511,577,-73
-256,-392,15717,511,579,-78
-256,-381,15984,256,586,-77
-256,-377,15981,256,589,-71
-256,-392,15721,511,585,-72
-256,-393,15720,511,584,-74
-256,-388,15718,511,581,-77
-256,-393,15715,511,578,-82
-256,-396,15705,511,577,-79
-256,-385,15705,511,578,-73
-256,-392,15696,511,577,-73
-256,-403,15695,511,577,-73
-256,-394,15708,511,580,-78
-256,-395,15710,511,579,-75
-256,-386,15719,511,577,-75
-256,-380,15978,256,580,-79
-256,-391,15975,256,578,-82
-256,-392,15977,256,578,-80
-256,-388,15994,256,580,-76
-256,-376,15990,256,579,-77
-256,-386,15977,256,578,-73
-256,-389,15984,256,577,-72
-256,-393,15984,256,577,-72
-256,-403,15984,256,581,-77
-256,-402,15736,511,576,-74
-256,-395,15738,511,574,-74
-256,-382,15998,256,579,-72
-256,-381,15989,256,578,-72
-256,-383,15978,256,575,-70
-256,-377,15974,256,572,-76
-256,-388,15979,256,571,-74
-256,-389,15736,511,570,-78
-256,-391,15747,511,572,-81
-256,-393,15747,511,574,-78
-256,-391,15736,511,574,-76
-256,-396,15730,511,571,-77
-256,-396,15985,256,571,-78
-256,-395,15977,256,568,-76
-256,-397,15975,256,569,-79
-256,-390,15973,256,573,-81
-256,-394,15967,256,576,-87
-256,-401,15969,256,574,-86
-256,-400,15977,256,571,-86
-256,-394,15970,256,573,-82
-256,-391,15710,511,572,-81
-256,-386,15707,511,572,-76
-256,-388,15710,511,570,-74
-256,-391,15713,511,570,-74
-256,-394,15702,511,574,-70
-256,-390,15701,511,576,-70
-256,-383,15707,511,574,-74
-256,-384,15961,256,570,-73
-256,-382,15713,511,569,-70
-256,-393,15718,511,571,-74
-256,-393,15731,511,571,-69
-256,-387,15727,511,572,-65
-256,-398,15981,256,572,-72
-256,-409,15983,256,567,-70
-256,-425,15971,256,565,-70
-256,-425,15969,256,566,-72
-256,-420,15963,256,567,-71
-256,-417,15702,511,576,-76
-256,-407,15704,511,577,-73
-256,-398,15706,511,570,-68
-256,-400,15707,511,573,-71
-256,-392,15698,511,574,-77
-256,-382,15719,511,573,-71
-256,-388,15715,511,573,-76
-256,-383,15711,511,577,-76
-256,-384,15724,511,579,-76
-256,-379,15726,511,580,-77
-256,-386,15713,511,579,-73
-256,-387,15711,511,579,-71
-256,-388,15712,511,580,-73
-256,-395,15720,511,577,-73
-256,-394,15728,511,578,-72
-256,-393,15725,511,580,-68
-256,-395,15713,511,579,-71
-256,-387,15716,511,578,-70
-256,-386,15724,511,577,-72
-256,-395,15727,511,580,-71
-256,-401,15725,511,584,-69
-256,-396,15727,511,583,-67
-256,-394,15737,511,581,-63
-256,-397,15728,511,581,-67
-256,-397,15723,511,580,-69
-256,-398,15732,511,578,-70
-256,-403,15731,511,575,-72
-256,-394,15738,511,576,-71
-256,-385,15743,511,577,-70
-256,-389,15737,511,577,-72
-256,-394,15725,511,579,-73
-256,-393,15713,511,581,-69
-256,-398,15704,511,582,-67
-256,-395,15706,511,582,-72
-256,-395,15701,511,580,-72
-256,-397,15703,511,576,-68
-256,-401,15712,511,577,-73
-256,-409,15725,511,573,-73
-256,-409,15737,511,576,-71
-256,-400,15740,511,578,-70
-256,-396,15742,511,576,-63
-256,-392,15736,511,578,-66
-256,-392,15730,511,575,-67
-256,-392,15724,511,578,-71
-256,-380,15714,511,583,-72
-256,-382,15702,511,581,-73
-256,-387,15695,511,578,-69
-256,-385,15689,511,579,-64
-256,-392,15691,511,578,-67
-256,-393,15696,511,578,-64
-256,-410,15708,511,576,-66
-256,-405,15710,511,576,-75
-256,-404,15722,511,574,-75
-256,-400,15736,511,574,-67
-256,-391,15736,511,575,-66
-256,-391,15744,511,575,-65
-256,-397,15744,511,574,-68
-256,-393,15740,511,576,-71
-256,-391,15737,511,580,-69
-256,-397,15735,511,581,-71
-256,-406,15740,511,579,-74
-256,-392,15743,511,582,-77
-256,-392,15987,256,588,-75
-256,-384,15981,256,586,-71
-256,-379,15971,256,576,-75
-256,-377,15975,256,578,-72
-256,-385,15976,256,581,-70
-256,-390,15988,256,580,-72
-256,-404,15988,256,579,-73
-256,-399,15994,256,580,-74
-256,-405,15991,256,580,-76
-256,-406,15714,511,575,-71
-256,-408,15711,511,576,-70
-256,-399,15714,511,572,-74
-256,-403,15698,511,571,-73
-256,-403,15691,511,573,-74
-256,-404,15699,511,574,-75
-256,-395,15702,511,576,-73
-256,-392,15697,511,578,-75
-256,-393,15698,511,578,-73
-256,-388,15973,256,577,-68
-256,-393,15982,256,579,-71
-256,-408,15985,256,579,-75
-256,-408,15737,511,576,-75
-256,-396,15743,511,579,-72
-256,-389,15993,256,587,-75
-256,-380,15982,256,584,-79
-256,-389,15989,256,580,-75
-256,-391,15985,256,578,-77
-256,-402,15730,511,572,-73
-256,-399,15726,511,565,-73
-256,-398,15724,511,568,-74
-256,-393,15713,511,568,-72
-256,-395,15705,511,565,-77
-256,-391,15705,511,567,-78
-256,-386,15716,511,571,-76
-256,-402,15716,511,573,-77
-256,-393,15706,511,574,-78
-256,-384,15704,511,574,-79
-256,-372,15700,511,576,-79
-256,-377,15709,511,575,-82
-256,-380,15701,511,577,-83
-256,-385,15706,511,580,-83
-256,-392,15707,511,579,-82
-256,-401,15715,511,580,-80
-256,-388,15724,511,581,-78
-256,-384,15989,256,582,-76
-256,-375,15737,511,584,-80
-256,-379,15996,256,581,-83
-256,-382,15737,511,577,-86
-256,-374,15733,511,576,-78
-256,-371,15727,511,574,-79
-256,-374,15725,511,573,-79
-256,-378,15714,511,575,-71
-256,-376,15716,511,579,-72
-256,-388,15710,511,581,-76
-256,-390,15711,511,579,-78
-256,-381,15713,511,580,-80
-256,-380,15717,511,580,-79
-256,-382,15724,511,578,-81
-256,-377,15727,511,581,-75
-256,-381,15722,511,584,-73
-256,-373,15710,511,582,-76
-256,-371,15711,511,578,-75
-256,-360,15718,511,575,-71
-256,-372,15723,511,574,-73
-256,-388,15975,256,574,-83
-256,-398,15710,511,570,-82
-256,-400,15709,511,569,-80
-256,-411,15705,511,575,-79
-256,-402,15713,511,579,-81
-256,-411,15717,511,577,-82
-256,-403,15715,511,576,-82
-256,-402,15717,511,573,-80
-256,-398,15711,511,579,-83
-256,-400,15716,511,580,-83
-256,-397,15726,511,578,-78
-256,-398,15723,511,578,-79
-256,-398,15723,511,578,-78
-256,-391,15974,256,579,-79
-256,-397,15974,256,579,-80
-256,-396,15963,256,580,-82
-256,-388,15713,511,576,-81
-256,-383,15717,511,574,-79
-256,-381,15719,511,572,-81
-256,-376,15966,256,574,-81
-256,-386,15965,256,576,-85
-256,-387,15712,511,575,-84
-256,-396,15716,511,572,-83
-256,-399,15711,511,571,-85
-256,-381,15729,511,569,-80
-256,-384,15714,511,569,-78
-256,-381,15703,511,565,-78
-256,-380,15709,511,564,-72
-256,-372,15724,511,565,-70
-256,-372,15724,511,566,-75
-256,-377,15985,256,564,-80
-256,-384,15716,511,573,-79
-256,-396,15709,511,573,-82
-256,-396,15707,511,572,-84
-256,-392,15701,511,574,-86
-256,-392,15703,511,579,-84
-256,-386,15703,511,581,-82
-256,-376,15708,511,586,-80
-256,-367,15716,511,585,-85
-256,-372,15718,511,581,-88
-256,-375,15986,256,580,-89
-256,-385,15988,256,582,-92
-256,-387,15730,511,581,-86
-256,-381,15746,511,584,-85
-256,-389,15744,511,580,-87
-256,-386,15735,511,578,-88
-256,-387,15732,511,576,-84
-256,-383,15722,511,569,-79
-256,-386,15713,511,565,-76
-256,-387,15716,511,565,-78
-256,-404,15959,256,570,-75
-256,-401,15704,511,571,-79
-256,-391,15707,511,573,-75
-256,-399,15711,511,577,-71
-256,-401,15726,511,581,-75
-256,-383,15719,511,583,-78
-256,-379,15720,511,574,-74
-256,-383,15731,511,570,-73
-256,-380,15733,511,573,-74
-256,-372,15723,511,573,-74
-256,-372,15726,511,575,-73
-256,-367,15716,511,575,-73
-256,-382,15708,511,576,-77
-256,-402,15714,511,577,-75
-256,-395,15715,511,575,-73
-256,-388,15711,511,571,-78
-256,-381,15714,511,573,-78
-256,-380,15976,256,574,-74
-256,-398,15719,511,574,-77
-256,-411,15712,511,578,-73
-256,-406,15702,511,576,-78
-256,-409,15721,511,577,-73
-256,-423,15982,256,576,-70
-256,-423,15992,256,576,-68
-256,-410,15997,256,573,-69
-256,-404,15994,256,572,-68
-256,-415,15985,256,576,-66
-256,-406,15980,256,570,-70
-256,-404,15977,256,567,-72
-256,-395,15723,511,568,-65
-256,-394,15726,511,570,-66
-256,-382,15717,511,575,-66
-256,-378,15712,511,574,-66
-256,-378,15964,256,579,-64
-256,-390,15706,511,576,-67
-256,-397,15712,511,578,-73
-256,-397,15721,511,583,-73
-256,-387,15719,511,582,-71
-256,-387,15982,256,581,-72
-256,-392,15962,256,577,-70
-256,-394,15703,511,578,-70
-256,-399,15708,511,580,-67
-256,-394,15712,511,578,-67
-256,-385,15713,511,578,-72
-256,-379,15719,511,579,-76
-256,-387,15718,511,574,-74
-256,-383,15726,511,574,-75
-256,-399,15971,256,578,-77
-256,-407,15967,256,578,-76
-256,-401,15711,511,576,-76
-256,-393,15721,511,571,-75
-256,-390,15724,511,572,-73
-256,-386,15720,511,574,-69
-256,-384,15718,511,576,-65
-256,-381,15716,511,578,-70
-256,-385,15723,511,579,-73
-256,-383,15711,511,579,-76
-256,-389,15717,511,578,-77
-256,-400,15975,256,577,-76
-256,-387,15980,256,577,-80
-256,-393,15977,256,577,-77
-256,-403,15964,256,578,-74
-256,-414,15966,256,574,-77
-256,-420,15981,256,576,-76
-256,-408,15734,511,577,-74
-256,-394,15736,511,579,-77
-256,-387,15732,511,578,-76
-256,-403,15723,511,576,-75
-256,-397,15715,511,576,-79
-256,-393,15715,511,579,-78
-256,-388,15720,511,578,-77
-256,-382,15732,511,580,-78
-256,-393,15727,511,583,-81
-256,-388,15731,511,580,-81
-256,-385,15731,511,579,-81
-256,-396,15723,511,582,-82
-256,-397,15720,511,584,-83
-256,-388,15720,511,583,-79
-256,-391,15711,511,582,-81
-256,-408,15705,511,587,-80
-256,-403,15710,511,584,-75
-256,-407,15713,511,581,-75
-256,-404,15715,511,582,-72
-256,-406,15719,511,580,-75
-256,-399,15713,511,577,-76
-256,-400,15709,511,578,-80
-256,-393,15706,511,583,-78
-256,-404,15709,511,577,-77
-256,-404,15719,511,575,-77
-256,-398,15704,511,574,-80
-256,-396,15706,511,575,-82
-256,-396,15712,511,582,-82
-256,-407,15972,256,580,-82
-256,-404,15718,511,574,-83
-256,-415,15722,511,576,-82
-256,-407,15722,511,579,-83
-256,-410,15717,511,580,-72
-256,-404,15704,511,576,-68
-256,-393,15702,511,576,-70
-256,-392,15711,511,580,-76
-256,-398,15702,511,581,-71
-256,-400,15697,511,583,-76
-256,-404,15683,511,585,-82
-256,-410,15690,511,586,-78
-256,-408,15952,256,582,-76
-256,-410,15699,511,578,-75
-256,-415,15961,256,575,-74
-256,-414,15969,256,576,-74
-256,-411,15977,256,572,-78
-256,-415,15977,256,569,-81
-256,-418,15984,256,571,-80
-256,-410,15992,256,580,-74
-256,-401,15730,511,581,-76
-256,-393,15721,511,580,-80
-256,-386,15712,511,581,-76
-256,-387,15718,511,584,-77
-256,-399,15720,511,587,-73
-256,-402,15724,511,584,-71
-256,-404,15717,511,581,-73
-256,-408,15722,511,578,-75
-256,-399,15735,511,576,-79
-256,-405,15730,511,584,-82
-256,-404,15724,511,585,-76
-256,-397,15721,511,581,-75
-256,-394,15723,511,580,-76
-256,-390,15727,511,575,-72
-256,-375,15725,511,577,-68
-256,-389,15722,511,574,-64
-256,-396,15712,511,579,-61
-256,-398,15703,511,582,-57
-256,-409,15701,511,581,-58
-256,-409,15957,256,574,-65
-256,-401,15944,256,574,-65
-256,-404,15950,256,579,-67
-256,-408,15957,256,577,-68
-256,-404,15705,511,575,-76
-256,-407,15706,511,575,-73
-256,-412,15960,256,579,-75
-256,-419,15957,256,580,-76
-256,-420,15960,256,578,-69
-256,-414,15703,511,572,-69
-256,-411,15959,256,574,-64
-256,-406,15698,511,575,-64
-256,-403,15705,511,573,-64
-256,-409,15962,256,575,-70
-256,-410,15702,511,576,-69
-256,-408,15716,511,573,-67
-256,-403,15722,511,570,-69
-256,-399,15712,511,573,-64
-256,-406,15718,511,571,-62
-256,-397,15718,511,572,-64
-256,-398,15979,256,572,-66
-256,-386,15727,511,571,-64
-256,-389,15716,511,575,-69
-256,-394,15719,511,579,-71
-256,-405,15723,511,578,-72
-256,-399,15736,511,583,-74
-256,-413,15732,511,582,-76
-256,-406,15737,511,576,-78
-256,-400,15729,511,578,-79
-256,-401,15743,511,582,-75
-256,-404,15731,511,581,-76
-256,-400,15722,511,576,-70
-256,-395,15734,511,574,-69
-256,-397,15747,511,580,-65
-256,-403,15744,511,578,-67
-256,-397,15751,511,575,-67
-256,-380,15745,511,575,-71
-256,-378,15730,511,577,-70
-256,-388,15735,511,580,-68
-256,-382,15725,511,576,-69
-256,-387,15715,511,577,-77
-256,-395,15709,511,574,-78
-256,-401,15715,511,575,-74
-256,-411,15720,511,576,-79
-256,-401,15716,511,575,-79
-256,-396,15714,511,573,-79
-256,-393,15712,511,574,-79
-256,-388,15971,256,577,-84
-256,-383,15712,511,576,-79
-256,-381,15705,511,573,-70
-256,-387,15695,511,577,-70
-256,-381,15697,511,581,-73
-256,-387,15706,511,581,-73
-256,-384,15713,511,580,-78
-256,-380,15718,511,580,-79
-256,-374,15718,511,583,-78
-256,-387,15715,511,581,-78
-256,-396,15719,511,580,-70
-256,-395,15720,511,579,-70
-256,-390,15707,511,577,-74
-256,-388,15693,511,577,-75
-256,-393,15703,511,574,-74
-256,-398,15722,511,574,-78
-256,-397,15726,511,570,-77
-256,-389,15734,511,571,-72
-256,-383,15738,511,573,-73
-256,-375,15739,511,574,-72
-256,-366,15733,511,580,-68
-256,-372,15736,511,581,-75
-256,-372,15735,511,576,-78
-256,-369,15717,511,576,-81
-256,-370,15719,511,580,-84
-256,-370,15716,511,582,-86
-256,-374,15719,511,577,-83
-256,-375,15716,511,574,-78
-256,-381,15719,511,572,-76
-256,-382,15718,511,574,-72
-256,-376,15728,511,573,-74
-256,-387,15721,511,569,-73
-256,-394,15709,511,566,-71
-256,-398,15708,511,570,-72
-256,-400,15704,511,577,-74
-256,-396,15704,511,577,-70
-256,-401,15707,511,582,-65
-256,-393,15725,511,582,-66
-256,-397,15725,511,582,-75
-256,-412,15720,511,581,-77
-256,-414,15722,511,583,-78
-256,-401,15729,511,583,-79
-256,-388,15735,511,580,-78
-256,-384,15731,511,576,-75
-256,-380,15735,511,572,-77
-256,-371,15986,256,573,-75
-256,-370,15984,256,572,-70
-256,-372,15730,511,564,-74
-256,-379,15730,511,565,-72
-256,-389,15737,511,573,-70
-256,-387,15736,511,573,-71
-256,-376,15993,256,569,-75
-256,-383,15725,511,568,-77
-256,-367,15711,511,569,-77
-256,-370,15729,511,569,-77
-256,-373,15977,256,572,-76
-256,-367,15976,256,570,-72
-256,-377,15995,256,565,-75
-256,-372,15740,511,568,-77
-256,-380,15735,511,572,-75
-256,-395,15981,256,578,-73
-256,-387,15719,511,577,-71
-256,-381,15961,256,575,-71
-256,-390,15951,256,574,-74
-256,-390,15945,256,579,-75
-256,-393,15948,256,574,-72
-256,-388,15948,256,571,-75
-256,-398,15689,511,571,-77
-256,-392,15696,511,576,-74
-256,-396,15708,511,576,-75
-256,-402,15710,511,575,-75
-256,-394,15707,511,579,-79
-256,-390,15709,511,579,-75
-256,-379,15715,511,580,-73
-256,-375,15711,511,580,-75
-256,-376,15709,511,582,-79
-256,-390,15709,511,580,-80
-256,-387,15714,511,576,-72
-256,-387,15707,511,576,-71
-256,-387,15711,511,575,-65
-256,-386,15713,511,576,-64
-256,-391,15719,511,580,-64
-256,-393,15721,511,578,-68
-256,-393,15711,511,576,-70
-256,-395,15716,511,577,-65
-256,-390,15717,511,578,-67
-256,-389,15712,511,574,-70
-256,-381,15710,511,576,-70
-256,-371,15709,511,581,-71
-256,-380,15716,511,576,-73
-256,-377,15719,511,573,-72
-256,-379,15725,511,571,-73
-256,-392,15716,511,570,-74
-256,-396,15717,511,569,-74
-256,-398,15722,511,568,-75
-256,-404,15722,511,570,-70
-256,-408,15716,511,568,-71
-256,-397,15715,511,564,-66
-256,-393,15717,511,567,-67
-256,-376,15717,511,569,-72
-256,-394,15723,511,572,-72
-256,-397,15714,511,573,-71
-256,-381,15728,511,572,-73
-256,-388,15738,511,569,-74
-256,-394,15743,511,572,-71
-256,-396,15731,511,575,-70
-256,-402,15710,511,574,-69
-256,-397,15702,511,576,-69
-256,-390,15702,511,577,-74
-256,-396,15698,511,575,-69
-256,-402,15703,511,574,-66
-256,-396,15696,511,573,-64
-256,-399,15703,511,573,-62
-256,-400,15709,511,571,-64
-256,-412,15716,511,572,-65
-256,-413,15718,511,574,-67
-256,-408,15714,511,576,-67
-256,-397,15958,256,582,-68
-256,-407,15957,256,578,-67
-256,-394,15968,256,580,-74
-256,-399,15974,256,579,-79
-256,-401,15967,256,579,-79
-256,-400,15960,256,581,-74
-256,-397,15960,256,576,-74
-256,-396,15971,256,574,-74
-256,-400,15975,256,576,-72
-256,-403,15969,256,577,-71
-256,-400,15968,256,575,-76
-256,-393,15711,511,576,-79
-256,-402,15704,511,573,-81
-256,-399,15711,511,572,-80
-256,-406,15717,511,572,-76
-256,-399,15710,511,564,-73
-256,-391,15703,511,562,-71
-256,-384,15710,511,568,-68
-256,-380,15706,511,568,-73
-256,-390,15715,511,564,-73
-256,-388,15720,511,564,-71
-256,-390,15724,511,570,-72
-256,-401,15718,511,572,-69
-256,-395,15715,511,572,-72
-256,-391,15708,511,570,-73
-256,-393,15708,511,567,-71
-256,-405,15706,511,566,-72
-256,-407,15697,511,571,-73
-256,-404,15707,511,575,-74
-256,-399,15708,511,577,-75
-256,-401,15706,511,573,-74
-256,-398,15706,511,571,-77
-256,-391,15693,511,573,-80
-256,-392,15689,511,571,-81
-256,-382,15950,256,570,-81
-256,-383,15701,511,573,-82
-256,-381,15708,511,572,-80
-256,-388,15705,511,579,-80
-256,-394,15714,511,579,-78
-256,-393,15703,511,579,-78
-256,-386,15705,511,580,-78
-256,-390,15707,511,579,-83
-256,-383,15708,511,581,-82
-256,-390,15714,511,578,-76
-256,-379,15967,256,573,-73
-256,-381,15973,256,575,-74
-256,-372,15974,256,571,-73
-256,-370,15717,511,570,-77
-256,-369,15714,511,569,-76
-256,-372,15714,511,570,-81
-256,-382,15718,511,571,-84
-256,-389,15724,511,568,-79
-256,-376,15729,511,569,-78
-256,-375,15728,511,577,-75
-256,-374,15729,511,578,-72
-256,-382,15729,511,576,-73
-256,-385,15725,511,580,-75
-256,-391,15728,511,582,-76
-256,-385,15733,511,581,-72
-256,-382,15728,511,581,-73
-256,-378,15712,511,578,-75
-256,-386,15720,511,576,-73
-256,-385,15717,511,574,-71
-256,-385,15719,511,575,-73
-256,-389,15722,511,576,-73
-256,-386,15718,511,577,-73
-256,-398,15718,511,579,-73
-256,-395,15715,511,577,-72
-256,-387,15705,511,579,-73
-256,-385,15965,256,573,-73
-256,-394,15959,256,581,-71
-256,-385,15961,256,585,-74
-256,-377,15960,256,582,-74
-256,-385,15706,511,574,-76
-256,-384,15697,511,578,-80
-256,-381,15705,511,584,-83
-256,-379,15969,256,581,-83
-256,-385,15710,511,576,-87
-256,-387,15701,511,577,-85
-256,-389,15699,511,574,-83
-256,-387,15695,511,572,-81
-256,-400,15695,511,574,-76
-256,-401,15710,511,582,-70
-256,-399,15712,511,578,-73
-256,-394,15711,511,582,-74
-256,-404,15714,511,584,-71
-256,-400,15710,511,585,-69
-256,-408,15708,511,585,-73
-256,-405,15709,511,585,-75
-256,-403,15706,511,579,-70
-256,-398,15710,511,571,-73
-256,-402,15717,511,571,-73
-256,-399,15719,511,574,-72
-256,-400,15724,511,577,-71
-256,-389,15987,256,578,-68
-256,-390,15713,511,577,-65
-256,-406,15716,511,582,-63
-256,-399,15729,511,581,-64
-256,-404,15725,511,578,-68
-256,-404,15728,511,576,-67
-256,-390,15732,511,578,-72
-256,-390,15734,511,574,-76
-256,-395,15720,511,570,-73
-256,-389,15718,511,564,-72
-256,-399,15724,511,570,-73
-256,-397,15724,511,576,-75
-256,-395,15734,511,570,-82
-256,-396,15742,511,574,-81
-256,-401,15727,511,576,-82
-256,-414,15720,511,569,-78
-256,-404,15717,511,570,-80
-256,-400,15981,256,579,-77
-256,-396,15980,256,580,-78
-256,-391,15978,256,577,-80
-256,-397,15981,256,575,-84
-256,-402,15716,511,571,-78
-256,-397,15723,511,570,-79
-256,-404,15727,511,569,-80
-256,-408,15725,511,569,-79
-256,-418,15720,511,565,-80
-256,-398,15714,511,565,-84
-256,-396,15714,511,569,-86
-256,-398,15724,511,576,-82
-256,-406,15725,511,579,-78
-256,-401,15726,511,576,-76
-256,-401,15712,511,577,-76
-256,-392,15708,511,578,-76
-256,-393,15711,511,575,-77
-256,-393,15718,511,572,-79
-256,-406,15718,511,570,-81
-256,-409,15710,511,572,-78
-256,-410,15698,511,574,-74
-256,-402,15694,511,577,-77
-256,-409,15694,511,575,-79
-256,-413,15691,511,575,-76
-256,-414,15689,511,578,-74
-256,-412,15693,511,576,-77
-256,-412,15703,511,571,-77
-256,-407,15717,511,571,-73
-256,-405,15717,511,571,-73
-256,-396,15722,511,569,-73
-256,-395,15720,511,570,-74
-256,-402,15722,511,570,-73
-256,-396,15727,511,571,-74
-256,-413,15718,511,575,-76
-256,-407,15711,511,576,-75
-256,-401,15709,511,577,-71
-256,-395,15702,511,581,-74
-256,-392,15698,511,576,-77
-256,-400,15950,256,577,-81
-256,-391,15701,511,582,-77
-256,-383,15961,256,581,-82
-256,-398,15961,256,576,-84
-256,-394,15701,511,574,-80
-256,-382,15712,511,577,-79
-256,-389,15721,511,579,-78
-256,-374,15730,511,570,-79
-256,-379,15734,511,567,-76
-256,-381,15728,511,569,-78
-256,-367,15716,511,572,-76
-256,-370,15713,511,573,-74
-256,-371,15714,511,576,-76
-256,-383,15699,511,577,-77
-256,-372,15698,511,572,-78
-256,-376,15709,511,570,-80
-256,-383,15713,511,570,-80
-256,-379,15722,511,570,-76
-256,-386,15712,511,571,-74
-256,-386,15709,511,574,-74
-256,-385,15707,511,573,-71
-256,-382,15709,511,578,-77
-256,-389,15721,511,577,-77
-256,-391,15719,511,579,-76
-256,-389,15711,511,580,-78
-256,-401,15714,511,576,-81
-256,-406,15707,511,575,-80
-256,-391,15711,511,574,-74
-256,-375,15712,511,571,-77
-256,-377,15715,511,571,-79
-256,-374,15722,511,576,-79
-256,-371,15721,511,580,-77
-256,-376,15978,256,578,-73
-256,-393,15722,511,581,-72
-256,-403,15725,511,581,-70
-256,-395,15721,511,576,-70
-256,-392,15990,256,579,-73
-256,-390,15996,256,583,-80
-256,-389,15728,511,583,-80
-256,-388,15988,256,583,-77
-256,-382,15726,511,582,-75
-256,-382,15726,511,579,-75
-256,-372,15975,256,574,-78
-256,-365,15978,256,573,-80
-256,-373,15734,511,571,-81
-256,-385,15739,511,568,-76
-256,-398,15737,511,574,-71
-256,-392,15718,511,577,-70
-256,-376,15719,511,575,-70
-256,-381,15714,511,576,-75
-256,-381,15709,511,580,-76
-256,-380,15707,511,584,-76
-256,-378,15715,511,583,-79
-256,-383,15728,511,578,-83
-256,-383,15727,511,579,-82
-256,-373,15732,511,577,-83
-256,-372,15725,511,578,-89
-256,-367,15715,511,581,-84
-256,-364,15714,511,583,-80
-256,-374,15712,511,588,-77
-256,-387,15720,511,587,-81
-256,-390,15719,511,584,-79
-256,-396,15714,511,581,-85
-256,-392,15704,511,582,-86
-256,-391,15702,511,580,-86
-256,-390,15701,511,578,-79
-256,-384,15958,256,577,-76
-256,-383,15705,511,578,-69
-256,-395,15706,511,575,-75
-256,-403,15972,256,570,-78
-256,-396,15979,256,573,-80
-256,-375,15727,511,575,-77
-256,-378,15714,511,578,-75
-256,-387,15714,511,577,-77
-256,-393,15726,511,573,-80
-256,-392,15722,511,575,-83
-256,-389,15715,511,580,-78
-256,-388,15709,511,584,-74
-256,-389,15716,511,586,-76
-256,-373,15724,511,582,-74
-256,-389,15718,511,578,-74
-256,-389,15714,511,579,-74
-256,-390,15711,511,581,-71
-256,-400,15708,511,580,-70
-256,-400,15714,511,575,-71
-256,-394,15722,511,577,-70
-256,-397,15714,511,578,-73
-256,-391,15709,511,577,-77
-256,-389,15703,511,584,-80
-256,-399,15698,511,583,-77
-256,-414,15707,511,584,-76
-256,-412,15964,256,580,-82
-256,-409,15965,256,579,-86
-256,-405,15963,256,579,-80
-256,-415,15966,256,583,-75
-256,-416,15714,511,584,-77
-256,-417,15718,511,584,-79
-256,-399,15719,511,583,-75
-256,-404,15722,511,577,-73
-256,-405,15726,511,577,-74
-256,-398,15727,511,583,-70
-256,-405,15733,511,581,-75
-256,-400,15737,511,582,-79
-256,-397,15718,511,587,-73
-256,-389,15703,511,588,-72
-256,-397,15711,511,585,-73
-256,-402,15703,511,579,-79
-256,-405,15702,511,577,-83
-256,-401,15707,511,575,-80
-256,-396,15701,511,578,-77
-256,-404,15705,511,581,-77
-256,-410,15707,511,580,-76
-256,-414,15714,511,581,-79
-256,-412,15722,511,582,-79
-256,-418,15722,511,583,-77
-256,-419,15726,511,577,-75
-256,-415,15717,511,575,-74
-256,-417,15719,511,575,-73
-256,-422,15719,511,578,-71
-256,-407,15714,511,577,-75
-256,-395,15714,511,579,-74
-256,-398,15714,511,574,-71
-256,-400,15721,511,575,-75
-256,-396,15980,256,578,-79
-256,-396,15985,256,577,-77
-256,-397,15984,256,580,-71
-256,-382,15972,256,578,-65
-256,-371,15971,256,577,-69
-256,-373,15979,256,578,-72
-256,-367,15981,256,581,-74
-256,-368,15966,256,586,-72
-256,-373,15967,256,585,-75
-256,-367,15973,256,579,-81
-256,-372,15994,256,574,-79
-256,-381,15986,256,570,-79
-256,-382,15967,256,569,-78
-256,-388,15961,256,569,-78
-256,-392,15716,511,566,-81
-256,-398,15728,511,567,-79
-256,-389,15729,511,572,-76
-256,-390,15723,511,572,-76
-256,-391,15723,511,578,-74
-256,-380,15708,511,579,-72
-256,-382,15711,511,580,-70
-256,-384,15715,511,579,-68
-256,-385,15718,511,580,-71
-256,-386,15739,511,580,-71
-256,-389,15746,511,580,-71
-256,-392,15995,256,583,-68
-256,-395,15734,511,579,-72
-256,-387,15723,511,579,-69
-256,-403,15969,256,581,-71
-256,-404,15964,256,584,-76
-256,-398,15704,511,584,-75
-256,-388,15709,511,579,-80
-256,-386,15707,511,575,-79
-256,-381,15705,511,575,-73
-256,-384,15703,511,582,-69
-256,-381,15705,511,580,-74
-256,-385,15703,511,575,-72
-256,-391,15707,511,574,-67
-256,-393,15713,511,572,-69
-256,-401,15712,511,573,-72
-256,-393,15709,511,574,-70
-256,-403,15717,511,572,-68
-256,-404,15721,511,579,-72
-256,-399,15718,511,583,-73
-256,-383,15723,511,582,-79
-256,-397,15731,511,582,-78
-256,-405,15731,511,580,-77
-256,-397,15722,511,576,-80
-256,-404,15727,511,576,-79
-256,-405,15724,511,571,-76
-256,-404,15729,511,572,-73
-256,-404,15979,256,576,-76
-256,-403,15969,256,578,-72
-256,-406,15705,511,578,-69
-256,-389,15703,511,581,-66
-256,-377,15706,511,580,-65
-256,-377,15706,511,581,-63
-256,-380,15717,511,577,-65
-256,-392,15698,511,581,-62
-256,-398,15682,511,577,-67
-256,-410,15683,511,575,-70
-256,-412,15688,511,573,-67
-256,-411,15689,511,574,-75
-256,-408,15691,511,578,-75
-256,-409,15688,511,580,-74
-256,-391,15704,511,576,-76
-256,-395,15714,511,576,-75
-256,-390,15721,511,579,-76
-256,-389,15708,511,579,-77
-256,-381,15707,511,578,-76
-256,-384,15708,511,578,-76
-256,-389,15698,511,573,-76
-256,-384,15705,511,572,-75
-256,-378,15708,511,573,-72
-256,-375,15706,511,571,-75
-256,-384,15706,511,571,-78
-256,-397,15707,511,572,-71
-256,-403,15709,511,570,-77
-256,-399,15706,511,574,-81
-256,-396,15708,511,578,-77
-256,-395,15706,511,575,-76
-256,-399,15702,511,571,-70
-256,-402,15700,511,567,-73
-256,-400,15700,511,570,-81
-256,-399,15699,511,572,-83
-256,-398,15713,511,574,-84
-256,-411,15719,511,575,-81
-256,-412,15726,511,574,-78
-256,-404,15733,511,575,-80
-256,-408,15987,256,574,-83
-256,-409,15736,511,573,-83
-256,-406,15731,511,570,-80
-256,-408,15733,511,577,-83
-256,-403,15733,511,582,-87
-256,-402,15716,511,581,-85
-256,-399,15723,511,577,-80
-256,-399,15720,511,575,-82
-256,-387,15726,511,573,-88
-256,-385,15720,511,574,-89
-256,-376,15720,511,581,-90
-256,-375,15728,511,582,-87
-256,-378,15726,511,577,-89
-256,-385,15722,511,581,-87
-256,-382,15716,511,582,-81
-256,-385,15969,256,579,-76
-256,-403,15974,256,577,-78
-256,-404,15971,256,572,-81
-256,-396,15961,256,572,-81
-256,-396,15960,256,575,-81
-256,-401,15714,511,569,-80
-256,-410,15728,511,570,-79
-256,-413,15718,511,567,-78
-256,-405,15717,511,571,-72
-256,-404,15720,511,570,-74
-256,-405,15721,511,571,-76
-256,-405,15728,511,570,-77
-256,-408,15732,511,568,-74
-256,-404,15732,511,564,-82
-256,-411,15732,511,568,-81
-256,-400,15719,511,570,-80
-256,-392,15709,511,573,-81
-256,-385,15707,511,573,-75
-256,-387,15712,511,571,-75
-256,-399,15720,511,576,-71
-256,-384,15979,256,576,-74
-256,-372,15719,511,575,-77
-256,-369,15712,511,575,-80
-256,-378,15708,511,577,-82
-256,-384,15711,511,575,-79
-256,-388,15709,511,575,-80
-256,-401,15714,511,571,-81
-256,-400,15724,511,565,-82
-256,-397,15982,256,564,-85
-256,-398,15728,511,563,-82
-256,-407,15985,256,567,-84
-256,-399,15723,511,571,-83
-256,-410,15725,511,571,-82
-256,-400,15717,511,569,-80
-256,-388,15719,511,570,-79
-256,-387,15736,511,569,-83
-256,-388,15737,511,572,-88
-256,-384,15734,511,573,-87
-256,-389,15732,511,573,-88
-256,-394,15729,511,574,-84
-256,-396,15735,511,573,-79
-256,-398,15727,511,571,-80
-256,-398,15722,511,574,-82
-256,-389,15727,511,580,-78
-256,-377,15728,511,576,-77
-256,-377,15720,511,573,-76
-256,-379,15975,256,574,-73
-256,-374,15962,256,577,-71
-256,-377,15964,256,577,-68
-256,-372,15693,511,582,-70
-256,-367,15681,511,588,-71
-256,-377,15686,511,585,-75
-256,-374,15678,511,580,-76
-256,-384,15677,511,581,-70
-256,-381,15658,511,585,-68
-256,-382,15915,256,584,-69
-256,-380,15927,256,580,-75
-256,-383,15936,256,579,-75
-256,-387,15951,256,580,-75
-256,-387,15959,256,577,-79
-256,-398,15958,256,576,-79
-256,-394,15963,256,577,-78
-256,-396,15693,511,576,-85
-256,-379,15697,511,579,-85
-256,-373,15699,511,580,-88
-256,-376,15707,511,581,-85
-256,-388,15708,511,578,-89
-256,-383,15717,511,581,-90
-256,-388,15721,511,583,-86
-256,-382,15713,511,582,-85
-256,-386,15705,511,578,-79
-256,-385,15700,511,575,-80
-256,-388,15699,511,572,-77
-256,-399,15697,511,572,-72
-256,-414,15695,511,576,-73
-256,-410,15708,511,575,-77
-256,-398,15707,511,573,-75
-256,-375,15715,511,578,-76
-256,-374,15711,511,576,-74
-256,-377,15704,511,575,-73
-256,-387,15949,256,577,-71
-256,-391,15698,511,579,-69
-256,-395,15704,511,575,-73
-256,-380,15699,511,575,-79
-256,-384,15702,511,578,-84
-256,-396,15696,511,572,-84
-256,-389,15706,511,572,-80
-256,-385,15722,511,572,-82
-256,-388,15733,511,571,-78
-256,-385,15743,511,573,-72
-256,-392,15749,511,572,-75
-256,-404,15747,511,575,-73
-256,-394,15745,511,572,-75
-256,-394,15742,511,578,-74
-256,-393,15752,511,580,-78
-256,-395,15742,511,579,-78
-256,-397,15735,511,581,-75
-256,-392,15735,511,587,-75
-256,-391,15746,511,585,-73
-256,-397,15754,511,586,-70
-256,-408,15741,511,583,-73
-256,-417,15731,511,580,-76
-256,-407,15732,511,578,-78
-256,-411,15721,511,575,-75
-256,-399,15730,511,574,-74
-256,-394,15733,511,574,-72
-256,-385,15737,511,574,-65
-256,-375,15737,511,575,-64
-256,-374,15730,511,575,-71
-256,-376,15728,511,576,-68
-256,-372,15738,511,578,-65
-256,-376,15729,511,576,-76
-256,-375,15738,511,578,-80
-256,-368,15729,511,580,-79
-256,-361,15711,511,584,-71
-256,-365,15708,511,581,-69
-256,-370,15714,511,581,-69
-256,-385,15713,511,576,-67
-256,-388,15713,511,569,-66
-256,-387,15711,511,572,-73
-256,-398,15712,511,576,-74
-256,-399,15725,511,582,-73
-256,-404,15732,511,583,-74
-256,-396,15734,511,580,-72
-256,-392,15731,511,579,-73
-256,-388,15729,511,580,-74
-256,-385,15723,511,574,-71
-256,-387,15716,511,567,-72
-256,-389,15726,511,566,-73
-256,-404,15727,511,567,-74
-256,-403,15728,511,570,-79
-256,-393,15991,256,573,-81
-256,-385,15731,511,573,-75
-256,-388,15986,256,577,-75
-256,-387,15723,511,582,-73
-256,-383,15718,511,580,-74
-256,-389,15727,511,587,-73
-256,-389,15723,511,587,-76
-256,-390,15718,511,581,-75
-256,-385,15716,511,580,-75
-256,-392,15725,511,582,-71
-256,-390,15724,511,576,-78
-256,-401,15722,511,572,-79
-256,-393,15720,511,574,-77
-256,-399,15730,511,575,-75
-256,-392,15721,511,577,-75
-256,-382,15712,511,584,-79
-256,-382,15707,511,581,-73
-256,-388,15710,511,577,-72
-256,-385,15704,511,576,-74
-256,-393,15707,511,577,-73
-256,-401,15714,511,579,-75
-256,-413,15716,511,575,-72
-256,-414,15716,511,571,-71
-256,-400,15718,511,575,-76
-256,-398,15728,511,575,-76
-256,-386,15733,511,579,-75
-256,-402,15720,511,577,-72
-256,-399,15732,511,576,-72
-256,-395,15722,511,569,-74
-256,-399,15731,511,566,-71
-256,-404,15731,511,565,-71
-256,-403,15731,511,567,-77
-256,-413,15721,511,565,-78
-256,-420,15730,511,563,-76
-256,-413,15731,511,568,-75
-256,-413,15736,511,574,-71
-256,-404,15733,511,574,-72
-256,-399,15738,511,570,-73
-256,-401,15737,511,575,-75
-256,-406,15982,256,578,-76
-256,-407,15715,511,575,-75
-256,-401,15722,511,573,-74
-256,-403,15727,511,575,-74
-256,-398,15727,511,575,-75
-256,-398,15718,511,573,-76
-256,-414,15719,511,575,-72
-256,-411,15974,256,580,-72
-256,-421,15726,511,580,-76
-256,-423,15723,511,579,-77
-256,-419,15719,511,582,-79
-256,-419,15716,511,577,-78
-256,-420,15710,511,575,-78
-256,-425,15709,511,578,-78
-256,-416,15964,256,582,-77
-256,-408,15967,256,581,-83
-256,-411,15980,256,576,-86
-256,-409,15719,511,579,-83
-256,-404,15732,511,576,-79
-256,-411,15978,256,577,-83
-256,-404,15979,256,578,-78
-256,-399,15976,256,576,-79
-256,-401,15980,256,578,-77
-256,-405,15727,511,580,-73
-256,-406,15724,511,580,-75
-256,-406,15725,511,581,-72
-256,-395,15729,511,586,-73
-256,-387,15728,511,586,-75
-256,-387,15726,511,584,-73
-256,-388,15716,511,581,-69
-256,-397,15707,511,576,-67
-256,-394,15695,511,580,-75
-256,-400,15702,511,579,-79
-256,-400,15691,511,578,-81
-256,-398,15682,511,579,-78
-256,-393,15698,511,578,-80
-256,-387,15717,511,578,-79
-256,-392,15723,511,582,-78
-256,-394,15716,511,577,-80
-256,-391,15968,256,572,-78
-256,-383,15710,511,565,-79
-256,-386,15714,511,567,-75
-256,-387,15722,511,569,-78
-256,-391,15709,511,567,-78
-256,-389,15708,511,567,-72
-256,-393,15721,511,570,-70
-256,-396,15719,511,574,-77
-256,-400,15710,511,574,-76
-256,-402,15713,511,575,-80
-256,-390,15723,511,572,-80
-256,-400,15728,511,570,-83
-256,-395,15734,511,568,-82
-256,-406,15726,511,571,-77
-256,-410,15723,511,571,-73
-256,-396,15723,511,572,-75
-256,-395,15720,511,576,-77
-256,-401,15723,511,576,-81
-256,-413,15726,511,577,-83
-256,-402,15723,511,578,-83
-256,-399,15715,511,579,-79
-256,-392,15714,511,578,-72
-256,-387,15720,511,577,-73
-256,-390,15732,511,578,-72
-256,-388,15746,511,579,-68
-256,-383,15741,511,579,-72
-256,-385,15733,511,578,-75
-256,-383,15726,511,576,-78
-256,-394,15729,511,576,-79
-256,-388,15989,256,578,-74
-256,-391,15722,511,572,-77
-256,-395,15719,511,567,-75
-256,-388,15718,511,563,-78
-256,-384,15709,511,568,-76
-256,-380,15700,511,574,-76
-256,-384,15694,511,577,-79
-256,-385,15693,511,583,-80
-256,-380,15701,511,578,-81
-256,-389,15700,511,577,-78
-256,-394,15704,511,576,-83
-256,-381,15709,511,579,-81
-256,-384,15718,511,582,-80
-256,-384,15714,511,577,-84
-256,-395,15725,511,581,-92
-256,-393,15712,511,579,-88
-256,-384,15701,511,575,-85
-256,-391,15704,511,577,-82
-256,-392,15700,511,580,-76
-256,-399,15696,511,579,-71
-256,-399,15698,511,578,-69
-256,-389,15697,511,576,-72
-256,-380,15703,511,575,-71
-256,-368,15710,511,574,-71
-256,-378,15715,511,573,-72
-256,-385,15722,511,575,-67
-256,-394,15973,256,573,-71
-256,-398,15969,256,573,-70
-256,-396,15976,256,574,-70
-256,-392,15710,511,569,-68
-256,-401,15713,511,571,-66
-256,-413,15710,511,571,-69
-256,-413,15707,511,570,-72
-256,-415,15713,511,575,-71
-256,-420,15721,511,570,-70
-256,-414,15724,511,566,-76
-256,-405,15727,511,565,-73
-256,-395,15741,511,570,-67
-256,-388,15736,511,571,-62
-256,-392,15737,511,572,-65
-256,-392,15737,511,574,-69
-256,-389,15742,511,570,-76
-256,-376,15741,511,570,-73
-256,-378,15743,511,571,-75
-256,-384,15735,511,576,-74
-256,-381,15983,256,578,-72
-256,-377,15717,511,577,-74
-256,-372,15708,511,572,-77
-256,-372,15713,511,570,-79
-256,-374,15706,511,572,-75
-256,-374,15703,511,576,-74
-256,-383,15704,511,574,-75
-256,-387,15699,511,577,-75
-256,-390,15963,256,577,-70
-256,-393,15955,256,574,-70
-256,-390,15697,511,571,-76
-256,-399,15948,256,570,-72
-256,-389,15703,511,568,-75
-256,-387,15707,511,567,-81
-256,-388,15712,511,575,-76
-256,-382,15711,511,577,-76
-256,-376,15720,511,576,-76
-256,-376,15726,511,577,-73
-256,-377,15719,511,581,-70
-256,-374,15707,511,579,-69
-256,-373,15716,511,575,-66
-256,-379,15726,511,576,-70
-256,-388,15722,511,578,-73
-256,-388,15724,511,579,-68
-256,-376,15723,511,579,-72
-256,-377,15717,511,578,-74
-256,-379,15717,511,574,-80
-256,-383,15706,511,572,-78
-256,-398,15701,511,576,-80
-256,-401,15712,511,578,-79
-256,-405,15714,511,578,-75
-256,-396,15702,511,574,-76
-256,-393,15702,511,571,-74
-256,-388,15701,511,573,-72
-256,-400,15709,511,575,-69
-256,-399,15967,256,576,-67
-256,-407,15972,256,577,-71
-256,-406,15969,256,570,-75
-256,-399,15973,256,571,-76
-256,-405,15989,256,574,-72
-256,-400,15985,256,571,-75
-256,-403,15986,256,573,-80
-256,-406,15727,511,569,-80
-256,-402,15731,511,571,-82
-256,-395,15732,511,570,-84
-256,-396,15728,511,573,-81
-256,-392,15719,511,572,-73
-256,-388,15720,511,568,-74
-256,-383,15706,511,571,-78
-256,-378,15707,511,575,-72
-256,-379,15724,511,576,-70
-256,-384,15718,511,578,-69
-256,-378,15700,511,573,-74
-256,-387,15691,511,571,-80
-256,-395,15952,256,571,-81
-256,-390,15710,511,572,-81
-256,-396,15711,511,572,-77
-256,-394,15976,256,573,-79
-256,-401,15978,256,573,-81
-256,-399,15971,256,571,-77
-256,-397,15715,511,568,-73
-256,-394,15715,511,573,-71
-256,-385,15709,511,576,-68
-256,-398,15709,511,575,-71
-256,-395,15722,511,571,-74
-256,-385,15731,511,575,-72
-256,-387,15721,511,575,-74
-256,-396,15723,511,573,-74
-256,-393,15710,511,573,-78
-256,-383,15701,511,571,-78
-256,-375,15701,511,572,-77
-256,-375,15706,511,574,-83
-256,-376,15707,511,570,-79
-256,-378,15709,511,567,-83
-256,-385,15697,511,571,-79
-256,-383,15699,511,573,-85
-256,-391,15698,511,572,-80
-256,-391,15693,511,571,-79
-256,-385,15704,511,569,-77
-256,-387,15707,511,569,-76
-256,-386,15709,511,574,-78
-256,-387,15970,256,571,-79
-256,-384,15972,256,572,-77
-256,-392,15965,256,572,-78
-256,-402,15966,256,575,-78
-256,-403,15973,256,575,-78
-256,-411,15983,256,574,-74
-256,-412,15719,511,578,-75
-256,-411,15701,511,583,-72
-256,-413,15712,511,582,-75
-256,-418,15722,511,584,-72
-256,-418,15727,511,585,-73
-256,-414,15734,511,585,-74
-256,-402,15723,511,585,-74
-256,-398,15707,511,584,-75
-256,-395,15700,511,588,-78
-256,-388,15704,511,587,-81
-256,-389,15705,511,579,-87
-256,-396,15714,511,578,-86
-256,-421,15714,511,577,-79
-256,-409,15717,511,575,-80
-256,-406,15719,511,575,-82
-256,-409,15710,511,572,-83
-256,-416,15715,511,568,-81
-256,-404,15727,511,570,-80
-256,-388,15724,511,569,-80
-256,-389,15719,511,570,-79
-256,-383,15716,511,571,-78
-256,-378,15713,511,564,-77
-256,-379,15718,511,563,-77
-256,-385,15720,511,566,-75
-256,-390,15725,511,568,-80
-256,-385,15732,511,569,-77
-256,-377,15736,511,573,-74
-256,-372,15723,511,579,-74
-256,-378,15717,511,578,-75
-256,-376,15708,511,577,-74
-256,-392,15703,511,579,-72
-256,-398,15711,511,581,-73
-256,-401,15714,511,581,-73
-256,-403,15722,511,580,-78
-256,-401,15727,511,583,-76
-256,-395,15734,511,580,-74
-256,-393,15740,511,575,-74
-256,-394,15740,511,571,-72
-256,-388,15736,511,566,-76
-256,-385,15733,511,565,-73
-256,-387,15715,511,565,-73
-256,-390,15714,511,568,-71
-256,-385,15715,511,575,-71
-256,-379,15721,511,576,-77
-256,-380,15725,511,579,-78
-256,-379,15724,511,583,-77
-256,-387,15710,511,582,-75
-256,-386,15709,511,581,-72
-256,-388,15715,511,583,-71
-256,-393,15715,511,582,-79
-256,-395,15726,511,578,-77
-256,-408,15726,511,576,-79
-256,-406,15723,511,580,-82
-256,-405,15731,511,582,-75
-256,-404,15724,511,581,-73
-256,-411,15715,511,576,-79
-256,-409,15704,511,577,-79
-256,-405,15699,511,579,-78
-256,-401,15702,511,581,-79
-256,-405,15702,511,584,-81
-256,-395,15965,256,585,-84
-256,-398,15975,256,580,-81
-256,-392,15981,256,579,-80
-256,-393,15982,256,582,-78
-256,-394,15725,511,578,-80
-256,-391,15973,256,581,-77
-256,-395,15971,256,584,-79
-256,-397,15971,256,579,-80
-256,-405,15704,511,575,-80
-256,-403,15716,511,576,-83
-256,-413,15720,511,576,-76
-256,-409,15718,511,577,-71
-256,-403,15716,511,573,-71
-256,-414,15715,511,570,-70
-256,-411,15711,511,568,-70
-256,-411,15717,511,568,-71
-256,-413,15717,511,567,-70
-256,-402,15727,511,571,-75
-256,-402,15718,511,571,-67
-256,-401,15715,511,570,-65
-256,-398,15716,511,570,-65
-256,-403,15719,511,575,-64
-256,-403,15709,511,576,-68
-256,-404,15700,511,578,-68
-256,-396,15697,511,578,-70
-256,-413,15705,511,582,-72
-256,-411,15710,511,582,-74
-256,-400,15714,511,577,-73
-256,-389,15964,256,576,-78
-256,-390,15966,256,583,-79
-256,-394,15963,256,585,-74
-256,-396,15973,256,583,-76
-256,-395,15715,511,581,-80
-256,-410,15709,511,578,-79
-256,-407,15692,511,574,-77
-256,-398,15683,511,572,-76
-256,-382,15696,511,574,-76
-256,-380,15697,511,579,-75
-256,-379,15957,256,579,-73
-256,-374,15975,256,577,-73
-256,-375,15968,256,575,-74
-256,-378,15710,511,576,-70
-256,-381,15968,256,579,-67
-256,-388,15709,511,580,-69
-256,-399,15964,256,584,-73
-256,-396,15696,511,587,-78
-256,-403,15708,511,585,-79
-256,-399,15712,511,578,-78
-256,-400,15715,511,579,-75
-256,-407,15720,511,574,-77
-256,-400,15724,511,572,-75
-256,-400,15730,511,570,-77
-256,-399,15723,511,566,-74
-256,-400,15731,511,565,-77
-256,-394,15722,511,567,-79
-256,-391,15728,511,567,-80
-256,-397,15727,511,570,-83
-256,-392,15720,511,572,-79
-256,-396,15720,511,575,-81
-256,-398,15725,511,577,-77
-256,-393,15724,511,581,-78
-256,-395,15717,511,582,-80
-256,-401,15712,511,584,-75
-256,-401,15713,511,581,-75
-256,-405,15717,511,578,-73
-256,-410,15703,511,572,-77
-256,-403,15714,511,573,-81
-256,-393,15705,511,576,-78
-256,-396,15698,511,574,-77
-256,-400,15695,511,573,-74
-256,-394,15700,511,575,-74
-256,-391,15699,511,576,-75
-256,-394,15703,511,578,-79
-256,-397,15708,511,577,-79
-256,-388,15708,511,573,-74
-256,-387,15703,511,573,-78
-256,-393,15706,511,577,-80
-256,-404,15728,511,577,-78
-256,-403,15731,511,575,-80
-256,-402,15722,511,580,-80
-256,-404,15724,511,580,-86
-256,-405,15724,511,579,-83
-256,-404,15730,511,576,-84
-256,-400,15729,511,576,-85
-256,-398,15731,511,581,-84
-256,-400,15723,511,583,-79
-256,-413,15721,511,582,-81
-256,-424,15725,511,581,-75
-256,-415,15719,511,583,-75
-256,-410,15724,511,583,-70
-256,-402,15718,511,581,-72
-256,-399,15717,511,577,-79
-256,-387,15718,511,581,-82
-256,-380,15729,511,578,-82
-256,-392,15729,511,578,-81
-256,-389,15727,511,584,-80
-256,-390,15724,511,585,-79
-256,-394,15979,256,582,-79
-256,-391,15723,511,584,-78
-256,-392,15728,511,583,-72
-256,-371,15713,511,582,-75
-256,-377,15713,511,581,-79
-256,-391,15975,256,577,-77
-256,-393,15723,511,572,-78
-256,-395,15720,511,576,-73
-256,-402,15970,256,570,-73
-256,-394,15715,511,571,-77
-256,-408,15716,511,576,-79
-256,-391,15705,511,576,-75
-256,-381,15705,511,574,-71
-256,-380,15702,511,579,-70
-256,-388,15702,511,575,-73
-256,-394,15713,511,577,-77
-256,-385,15707,511,579,-80
-256,-392,15969,256,583,-80
-256,-391,15713,511,577,-79
-256,-399,15702,511,574,-78
-256,-405,15717,511,573,-74
-256,-398,15740,511,571,-79
-256,-388,15727,511,577,-81
-256,-388,15726,511,577,-84
-256,-377,15722,511,574,-86
-256,-375,15721,511,575,-83
-256,-378,15713,511,578,-83
-256,-388,15710,511,581,-77
-256,-391,15711,511,579,-72
-256,-400,15712,511,579,-75
-256,-397,15721,511,578,-70
-256,-382,15717,511,579,-73
-256,-398,15712,511,581,-72
-256,-394,15964,256,576,-75
-256,-391,15711,511,577,-82
-256,-404,15712,511,577,-79
-256,-410,15714,511,575,-78
-256,-412,15975,256,573,-79
-256,-430,15964,256,573,-73
-256,-427,15717,511,577,-76
-256,-431,15981,256,578,-83
-256,-420,15717,511,579,-83
-256,-420,15721,511,579,-80
-256,-407,15709,511,579,-76
-256,-403,15719,511,578,-69
-256,-408,15981,256,581,-72
-256,-407,15716,511,582,-74
-256,-402,15707,511,583,-79
-256,-398,15712,511,583,-80
-256,-389,15715,511,580,-80
-256,-396,15721,511,579,-74
-256,-405,15714,511,575,-78
-256,-418,15719,511,573,-81
-256,-410,15970,256,574,-82
-256,-412,15714,511,575,-80
-256,-416,15722,511,575,-76
-256,-402,15725,511,578,-80
-256,-401,15728,511,580,-79
-256,-404,15721,511,576,-80
-256,-400,15979,256,581,-81
-256,-398,15984,256,579,-79
-256,-391,15734,511,576,-78
-256,-400,15740,511,578,-70
-256,-409,15989,256,572,-70
-256,-412,15725,511,570,-75
-256,-403,15730,511,572,-73
-256,-401,15727,511,571,-75
-256,-398,15717,511,572,-77
-256,-390,15978,256,577,-77
-256,-402,15720,511,576,-79
-256,-409,15718,511,572,-83
-256,-411,15714,511,576,-87
-256,-406,15720,511,583,-87
-256,-409,15715,511,584,-86
-256,-410,15708,511,584,-85
-256,-415,15710,511,586,-84
-256,-407,15961,256,584,-83
-256,-408,15699,511,580,-77
-256,-412,15710,511,579,-78
-256,-397,15711,511,577,-84
-256,-392,15981,256,584,-76
-256,-400,15725,511,580,-76
-256,-400,15725,511,580,-77
-256,-399,15718,511,577,-81
-256,-398,15726,511,578,-83
-256,-392,15726,511,578,-77
-256,-401,15718,511,579,-76
-256,-403,15703,511,576,-79
-256,-391,15957,256,576,-81
-256,-394,15699,511,573,-78
-256,-400,15683,511,572,-81
-256,-401,15694,511,576,-83
-256,-399,15957,256,578,-84
-256,-401,15709,511,576,-84
-256,-409,15709,511,574,-79
-256,-421,15722,511,576,-74
-256,-402,15728,511,578,-75
-256,-394,15739,511,576,-77
-256,-396,15732,511,580,-75
-256,-401,15731,511,584,-67
-256,-404,15731,511,587,-65
-256,-410,15720,511,586,-68
-256,-411,15718,511,588,-68
-256,-401,15725,511,584,-66
-256,-399,15743,511,580,-70
-256,-398,15745,511,579,-72
-256,-399,15735,511,584,-75
-256,-411,15725,511,584,-78
-256,-401,15983,256,585,-73
-256,-400,15985,256,583,-70
-256,-395,15987,256,581,-73
-256,-384,15992,256,582,-72
-256,-393,15990,256,577,-69
-256,-394,15977,256,577,-71
-256,-390,15969,256,576,-71
-256,-390,15979,256,575,-72
-256,-385,15982,256,575,-71
-256,-390,15987,256,579,-71
-256,-392,15730,511,576,-77
-256,-397,15987,256,578,-77
-256,-409,15987,256,578,-74
-256,-401,15992,256,577,-74
-256,-407,15987,256,569,-70
-256,-403,15978,256,570,-67
-256,-401,15989,256,574,-71
-256,-403,15993,256,574,-77
-256,-402,15738,511,578,-73
-256,-392,15737,511,578,-73
-256,-392,15742,511,575,-73
-256,-382,15999,256,580,-79
-256,-385,15734,511,576,-80
-256,-387,15726,511,572,-72
-256,-379,15717,511,572,-75
-256,-391,15714,511,575,-82
-256,-408,15717,511,571,-83
-256,-414,15721,511,568,-80
-256,-398,15723,511,569,-76
-256,-383,15724,511,571,-77
-256,-380,15721,511,572,-79
-256,-379,15709,511,575,-73
-256,-375,15702,511,576,-68
-256,-379,15708,511,576,-66
-256,-376,15712,511,574,-66
-256,-380,15716,511,571,-64
-256,-386,15976,256,571,-65
-256,-386,15972,256,570,-63
-256,-390,15721,511,569,-63
-256,-385,15717,511,571,-63
-256,-381,15719,511,573,-61
-256,-385,15729,511,576,-66
-256,-387,15729,511,571,-72
-256,-397,15729,511,568,-69
-256,-394,15735,511,563,-66
-256,-387,15738,511,566,-62
-256,-392,15732,511,569,-62
-256,-392,15732,511,568,-65
-256,-393,15729,511,571,-69
-256,-387,15977,256,570,-73
-256,-401,15718,511,570,-74
-256,-394,15727,511,567,-70
-256,-384,15731,511,571,-73
-256,-377,15990,256,572,-76
-256,-392,15724,511,573,-67
-256,-396,15716,511,578,-67
-256,-397,15704,511,582,-71
-256,-408,15705,511,579,-70
-256,-405,15713,511,577,-70
-256,-409,15707,511,575,-67
-256,-401,15707,511,572,-76
-256,-387,15706,511,571,-81
-256,-383,15720,511,572,-78
-256,-391,15725,511,572,-77
-256,-393,15724,511,575,-78
-256,-396,15726,511,577,-74
-256,-394,15706,511,579,-72
-256,-407,15701,511,582,-72
-256,-422,15710,511,586,-71
-256,-410,15724,511,582,-69
-256,-398,15714,511,580,-69
-256,-399,15719,511,575,-70
-256,-411,15721,511,578,-73
-256,-406,15721,511,579,-75
-256,-403,15723,511,571,-76
-256,-405,15723,511,570,-81
-256,-408,15718,511,573,-79
-256,-393,15977,256,575,-76
-256,-392,15982,256,572,-80
-256,-379,15983,256,574,-86
-256,-385,15726,511,574,-80
-256,-386,15991,256,573,-77
-256,-394,15987,256,571,-80
-256,-382,15983,256,571,-73
-256,-390,15986,256,574,-68
-256,-398,15984,256,578,-73
-256,-402,15972,256,582,-73
-256,-401,15716,511,580,-69
-256,-404,15727,511,577,-70
-256,-404,15718,511,580,-75
-256,-400,15980,256,582,-77
-256,-388,15992,256,579,-77
-256,-374,15989,256,586,-77
-256,-369,16002,256,586,-81
-256,-377,16004,256,583,-78
-256,-388,15735,511,582,-77
-256,-384,15972,256,578,-74
-256,-384,15967,256,579,-73
-256,-391,15710,511,580,-79
-256,-385,15719,511,576,-83
-256,-369,15725,511,578,-81
-256,-371,15738,511,582,-79
-256,-382,15735,511,581,-83
-256,-391,15735,511,579,-78
-256,-392,15734,511,583,-75
-256,-395,15734,511,588,-75
-256,-399,15739,511,585,-77
-256,-407,15734,511,581,-81
-256,-401,15724,511,579,-82
-256,-410,15709,511,575,-82
-256,-417,15714,511,575,-80
-256,-418,15724,511,582,-81
-256,-408,15728,511,587,-77
-256,-403,15989,256,584,-71
-256,-405,15981,256,584,-68
-256,-408,15985,256,582,-71
-256,-404,15733,511,580,-70
-256,-398,15733,511,580,-71
-256,-399,15734,511,579,-75
-256,-404,15730,511,575,-83
-256,-414,15732,511,577,-84
-256,-406,15735,511,578,-86
-256,-392,15735,511,576,-82
-256,-388,15723,511,574,-79
-256,-381,15714,511,573,-78
-256,-387,15721,511,579,-75
-256,-385,15970,256,576,-72
-256,-382,15708,511,581,-75
-256,-382,15709,511,582,-79
-256,-395,15727,511,583,-76
-256,-410,15737,511,582,-75
-256,-425,15741,511,580,-76
-256,-426,15742,511,584,-71
-256,-405,15743,511,579,-69
-256,-391,15742,511,575,-70
-256,-398,15733,511,572,-74
-256,-396,15743,511,575,-71
-256,-396,15746,511,574,-68
-256,-394,15742,511,572,-65
-256,-405,15736,511,569,-66
-256,-406,15723,511,571,-69
-256,-392,15726,511,577,-69
-256,-380,15720,511,575,-74
-256,-379,15723,511,569,-77
-256,-379,15718,511,567,-80
-256,-380,15717,511,572,-72
-256,-381,15706,511,574,-68
-256,-392,15707,511,573,-74
-256,-395,15709,511,569,-74
-256,-402,15724,511,567,-71
-256,-394,15971,256,567,-71
-256,-400,15721,511,572,-75
-256,-394,15731,511,576,-73
-256,-402,15734,511,576,-72
-256,-399,15730,511,577,-70
-256,-397,15721,511,577,-71
-256,-396,15721,511,575,-78
-256,-388,15721,511,570,-84
-256,-388,15726,511,571,-84
-256,-382,15726,511,571,-81
-256,-381,15732,511,569,-80
-256,-392,15729,511,569,-78
-256,-388,15729,511,570,-76
-256,-396,15979,256,568,-71
-256,-387,15995,256,568,-70
-256,-399,15994,256,571,-73
-256,-406,15995,256,574,-78
-256,-400,15989,256,575,-77
-256,-410,15731,511,573,-69
-256,-418,15726,511,570,-72
-256,-396,15718,511,572,-70
-256,-392,15710,511,572,-72
-256,-390,15702,511,569,-79
-256,-378,15708,511,569,-77
-256,-386,15970,256,571,-69
-256,-373,15716,511,568,-68
-256,-377,15728,511,571,-68
-256,-379,15728,511,573,-69
-256,-374,15732,511,578,-66
-256,-382,15989,256,582,-68
-256,-382,15736,511,579,-67
-256,-376,15728,511,575,-68
-256,-385,15982,256,579,-70
-256,-392,15980,256,580,-71
-256,-390,15720,511,577,-74
-256,-389,15720,511,580,-73
-256,-393,15984,256,580,-71
-256,-398,15991,256,578,-78
-256,-402,15992,256,578,-81
-256,-390,15733,511,581,-81
-256,-393,15992,256,579,-79
-256,-393,15730,511,582,-81
-256,-394,15724,511,586,-83
-256,-391,15706,511,584,-82
-256,-381,15698,511,582,-79
-256,-378,15701,511,581,-74
-256,-380,15699,511,581,-72
-256,-381,15705,511,584,-74
-256,-369,15708,511,581,-78
-256,-360,15712,511,583,-73
-256,-362,15710,511,581,-71
-256,-373,15717,511,585,-75
-256,-371,15721,511,584,-80
-256,-380,15728,511,579,-78
-256,-380,15719,511,577,-69
-256,-385,15718,511,579,-71
-256,-389,15718,511,579,-69
-256,-388,15709,511,575,-66
-256,-393,15704,511,580,-73
-256,-390,15703,511,583,-73
-256,-391,15702,511,576,-72
-256,-394,15698,511,576,-73
-256,-394,15686,511,575,-73
-256,-388,15694,511,577,-78
-256,-381,15696,511,579,-78
-256,-389,15690,511,582,-77
-256,-378,15697,511,583,-75
-256,-369,15704,511,584,-75
