Ax,Ay,Az,Gx,Gy,Gz
0,-384,15712,511,581,-76
0,-408,15908,256,604,-82
0,-340,15624,511,580,-82
0,-384,15732,511,564,-81
0,-380,15664,511,585,-54
0,-400,15664,511,577,-98
0,-328,15880,256,579,-60
0,-444,15628,511,570,-101
0,-628,16112,256,564,-56
0,-324,15948,256,575,-70
0,-336,15636,511,561,-101
0,-356,15912,256,571,-65
0,-420,15924,256,565,-105
0,-404,15740,511,564,-78
0,-356,15628,511,586,-97
0,-364,15920,256,578,-83
0,-356,15688,511,585,-99
0,-368,15684,511,595,-87
0,-376,15920,256,568,-89
0,-396,15628,511,588,-92
0,-368,15692,511,568,-97
0,-380,15684,511,565,-81
0,-432,15900,256,566,-81
0,-380,15872,256,575,-80
0,-396,15684,511,572,-68
0,-396,15900,256,561,-98
0,-364,15660,511,576,-89
0,-368,15664,511,601,-75
0,-660,15864,511,564,-108
0,-340,15632,511,609,-67
0,-628,15828,511,578,-49
0,-380,15632,511,551,-68
0,-364,15712,511,565,-57
0,-356,15692,511,572,-90
0,-372,15720,511,588,-79
0,-412,15644,511,563,-68
0,-392,15936,256,556,-90
0,-384,15680,511,571,-75
0,-364,15632,511,601,-66
0,-380,15948,256,552,-60
0,-316,15644,511,592,-60
0,-348,15644,511,539,-86
0,-388,15964,256,584,-95
0,-356,15936,256,587,-82
0,-408,15936,256,570,-62
0,-332,15920,256,574,-94
0,-360,15720,511,585,-77
0,-348,15648,511,572,-57
0,-332,15932,256,571,-81
0,-356,15944,256,561,-106
0,-360,15900,511,572,-77
0,-440,15692,511,596,-97
0,-372,15668,511,560,-105
0,-336,15920,256,592,-119
0,-380,15680,256,541,-91
0,-400,15624,511,607,-59
0,-352,15680,511,564,-83
0,-388,15892,256,565,-116
0,-432,15908,256,570,-80
0,-336,15908,256,571,-69
0,-404,15904,256,558,-91
0,-320,15660,511,579,-99
0,-396,15652,511,602,-76
0,-332,15676,511,569,-103
0,-376,15884,256,559,-74
0,-400,15892,256,582,-96
0,-348,15656,511,579,-75
0,-364,15700,511,567,-77
0,-648,16108,256,572,-97
0,-396,15692,511,572,-59
0,-392,15644,511,555,-108
0,-356,15696,511,579,-64
0,-664,15864,511,589,-99
0,-532,15852,511,562,-64
0,-356,15936,256,580,-123
0,-316,15932,256,556,-68
0,-336,15684,511,597,-94
0,-368,15928,256,556,-103
0,-340,15892,256,577,-85
0,-384,15708,256,585,-94
0,-368,15636,511,573,-42
0,-412,15904,256,567,-65
0,-356,15928,256,578,-85
0,-428,15940,256,584,-55
0,-408,15876,256,565,-98
0,-368,15636,511,568,-80
0,-404,15904,256,610,-66
0,-380,15888,256,575,-104
0,-368,15680,511,541,-72
0,-408,15940,256,556,-57
0,-640,16116,256,576,-88
0,-356,15680,511,563,-99
0,-332,15668,511,561,-61
0,-404,15908,256,584,-88
0,-332,15968,256,586,-72
0,-372,15672,511,594,-84
0,-580,15844,511,583,-95
0,-344,15928,256,562,-33
0,-572,15860,511,585,-76
0,-356,15616,511,574,-110
0,-380,15940,256,553,-66
0,-412,15648,511,569,-71
0,-396,15728,511,567,-103
0,-388,15920,256,602,-77
0,-384,15652,511,542,-73
0,-372,15880,256,614,-70
0,-352,15668,511,562,-89
0,-396,15896,256,571,-94
0,-368,15652,511,550,-81
0,-316,15696,511,582,-70
0,-648,15864,511,574,-102
0,-332,15660,511,576,-79
0,-360,15644,511,595,-63
0,-696,16112,511,599,-91
0,-396,15624,511,574,-76
0,-288,15904,256,570,-101
0,-364,15648,511,560,-88
0,-364,15636,511,598,-92
0,-372,15940,256,573,-82
0,-384,15920,256,604,-86
0,-388,15688,511,589,-124
0,-360,15884,256,566,-82
0,-392,15644,511,575,-96
0,-624,16120,256,575,-93
0,-352,15656,511,600,-97
0,-404,15652,511,584,-83
0,-616,16120,256,571,-59
0,-368,15900,256,598,-75
0,-348,15676,511,579,-104
0,-308,15676,511,574,-95
0,-336,15704,511,570,-80
0,-308,15652,511,564,-62
0,-356,15952,256,594,-90
0,-608,15836,511,574,-99
0,-384,15640,511,589,-85
0,-428,15960,256,575,-83
0,-340,15632,511,579,-88
0,-596,16116,256,584,-92
0,-348,15912,256,557,-79
0,-332,15932,256,579,-92
0,-360,15700,511,592,-91
0,-336,15896,256,569,-82
0,-328,15668,511,582,-74
0,-412,15652,511,581,-85
0,-412,15668,511,584,-99
0,-432,15616,511,592,-61
0,-352,15680,511,567,-72
0,-404,15944,256,603,-57
0,-404,15672,511,612,-86
0,-404,15692,511,584,-85
0,-272,15632,511,583,-79
0,-668,16120,256,573,-93
0,-420,15888,256,540,-92
0,-372,15944,256,573,-92
0,-360,15716,511,558,-64
0,-324,15636,511,570,-85
0,-448,15908,256,566,-72
0,-616,15848,511,571,-96
0,-372,15916,256,585,-88
0,-700,15856,511,566,-92
0,-404,15876,256,577,-92
0,-344,15636,511,560,-65
0,-420,15680,511,581,-78
0,-624,15868,256,589,-74
0,-372,15880,256,562,-110
0,-608,16112,256,552,-95
0,-360,15656,511,543,-80
0,-600,15832,256,589,-56
0,-588,15864,511,539,-98
0,-424,15672,511,584,-85
0,-644,15860,511,550,-97
0,-384,15952,256,582,-89
0,-680,15856,511,560,-112
0,-360,15912,256,562,-96
0,-400,15952,256,575,-80
0,-380,15652,511,566,-63
0,-344,15924,256,606,-84
0,-376,15924,256,548,-101
0,-352,15924,256,599,-66
0,-424,15956,256,581,-92
0,-352,15728,511,567,-92
0,-428,15640,511,586,-97
0,-404,15704,511,598,-66
0,-384,15644,511,573,-101
0,-364,15624,511,568,-78
0,-392,15648,511,563,-84
0,-340,15708,511,566,-99
0,-632,16116,256,585,-90
0,-388,15912,256,573,-68
0,-360,15652,511,565,-92
0,-408,15964,256,580,-78
0,-436,15912,256,568,-109
0,-424,15928,256,587,-54
0,-408,15640,511,573,-75
0,-580,16116,256,572,-90
0,-336,15876,256,575,-72
0,-392,15924,256,575,-102
0,-388,15652,511,587,-56
0,-380,15624,511,563,-103
0,-380,15680,511,586,-107
0,-412,15624,511,578,-34
0,-364,15648,511,570,-90
0,-400,15668,511,574,-71
0,-408,15620,511,563,-78
0,-340,15648,511,580,-81
0,-332,15884,256,579,-96
0,-608,15852,256,552,-110
0,-392,15748,511,582,-97
0,-308,15900,256,582,-115
0,-420,15648,511,577,-81
0,-380,15668,511,579,-93
0,-380,15872,256,599,-91
0,-364,15880,256,549,-76
0,-360,15652,511,574,-66
0,-344,15892,256,566,-92
0,-360,15688,511,559,-90
0,-360,15936,256,597,-74
0,-336,15904,256,526,-92
0,-416,15660,511,558,-79
0,-384,15692,511,574,-89
0,-364,15932,256,576,-90
0,-456,15900,256,549,-85
0,-596,15820,511,584,-79
0,-364,15636,511,580,-73
0,-360,15900,256,585,-88
0,-368,15692,511,565,-65
0,-332,15652,511,561,-82
0,-360,15632,511,585,-74
0,-380,15920,256,577,-67
0,-328,15880,256,604,-81
0,-376,15668,511,604,-75
0,-320,15616,511,579,-61
0,-584,15844,511,563,-109
0,-388,15660,511,610,-87
0,-296,15928,256,586,-82
0,-400,15672,511,554,-84
0,-608,15864,511,561,-92
0,-396,15684,256,576,-87
0,-424,15644,511,569,-62
0,-352,15936,256,585,-84
0,-396,15928,256,574,-85
0,-332,15656,511,567,-71
0,-372,15656,511,552,-80
0,-404,15664,511,549,-73
0,-352,15672,511,585,-87
0,-604,15808,511,576,-74
0,-400,15628,511,555,-73
0,-348,15660,511,562,-98
0,-444,15968,256,566,-93
0,-344,15636,511,556,-72
0,-316,15672,511,570,-78
0,-280,15664,511,578,-91
0,-432,15896,256,549,-48
0,-344,15620,511,581,-84
0,-388,15672,511,552,-98
0,-392,15932,256,595,-64
0,-352,15904,256,582,-75
0,-436,15752,511,585,-47
0,-372,15936,256,594,-76
0,-312,15908,256,571,-80
0,-364,15632,511,578,-107
0,-384,15756,511,610,-91
0,-664,15860,511,583,-72
0,-392,15688,511,576,-94
0,-376,15948,256,582,-92
0,-316,15628,511,564,-107
0,-388,15648,256,547,-62
0,-356,15684,511,598,-67
0,-364,15644,511,585,-69
0,-392,15940,256,560,-67
0,-376,15624,511,572,-66
0,-408,15652,511,568,-84
0,-384,15656,511,556,-80
0,-348,15896,256,571,-95
0,-364,15896,256,552,-68
0,-340,15632,511,596,-69
0,-356,15952,256,573,-65
0,-388,15872,256,574,-43
0,-636,15868,511,589,-86
0,-596,15840,511,594,-98
0,-644,15856,511,552,-68
0,-612,16112,256,572,-59
0,-384,15676,511,571,-96
0,-364,15632,511,568,-79
0,-372,15948,256,577,-61
0,-332,15964,256,586,-54
0,-380,15636,511,578,-59
0,-380,15916,256,540,-82
0,-384,15704,511,573,-78
0,-360,15648,511,583,-81
0,-368,15928,256,600,-85
0,-416,15616,511,560,-69
0,-388,15928,256,569,-95
0,-368,15676,511,575,-81
0,-416,15872,256,565,-72
0,-380,15912,256,552,-83
0,-400,15924,256,583,-112
0,-372,15684,511,569,-86
0,-392,15656,511,569,-95
0,-376,15916,256,594,-43
0,-444,15904,256,566,-88
0,-344,15712,511,552,-76
0,-432,15908,256,581,-69
0,-332,15952,256,556,-93
0,-360,15616,511,575,-85
0,-368,15908,256,590,-101
0,-384,15668,511,604,-102
0,-360,15908,256,557,-67
0,-420,15672,511,588,-85
0,-608,15856,511,594,-67
0,-392,15684,511,599,-115
0,-404,15872,256,601,-65
0,-364,15700,511,590,-72
0,-340,15672,511,562,-79
0,-636,15868,511,588,-114
0,-360,15896,256,574,-91
255,-548,15864,511,585,-86
0,-648,15868,511,573,-56
0,-300,15676,511,560,-73
0,-360,15920,256,567,-84
0,-336,15628,511,566,-64
0,-400,15648,511,561,-80
0,-608,15848,511,572,-61
0,-356,15696,511,565,-62
0,-344,15636,511,576,-79
0,-356,15968,256,572,-113
0,-340,15660,511,582,-67
0,-424,15628,511,588,-59
0,-372,15700,511,577,-88
0,-364,15904,256,594,-76
0,-340,15676,511,554,-73
0,-336,15640,511,582,-98
0,-608,16100,256,592,-58
0,-384,15644,511,567,-65
0,-628,15832,511,597,-90
0,-372,15700,511,586,-107
0,-372,15964,256,560,-92
0,-340,15684,511,540,-101
0,-400,15708,511,572,-80
0,-384,15656,511,567,-83
0,-424,15660,511,567,-74
0,-592,15852,511,549,-72
0,-388,15688,511,565,-35
0,-396,15896,256,586,-86
0,-352,15660,256,591,-99
0,-364,15700,511,570,-124
0,-368,15712,511,550,-79
0,-368,15944,256,556,-104
0,-352,15696,511,572,-60
0,-388,15672,511,590,-84
0,-400,15708,511,585,-65
0,-412,15660,511,590,-74
0,-384,15668,511,570,-110
0,-340,15700,511,556,-79
0,-620,16116,256,569,-86
0,-372,15652,511,587,-93
0,-376,15616,511,564,-103
0,-312,15700,511,584,-86
0,-364,15660,511,562,-91
0,-364,15904,256,571,-89
0,-624,16096,256,563,-58
0,-336,15916,256,579,-48
0,-352,15708,511,586,-61
0,-380,15620,511,552,-93
0,-336,15668,511,589,-116
0,-368,15664,511,564,-80
0,-316,15656,511,562,-77
0,-352,15636,511,560,-89
0,-392,15672,511,573,-89
0,-376,15616,511,573,-92
0,-376,15912,256,585,-86
0,-404,15676,511,569,-91
0,-356,15656,511,590,-52
0,-344,15628,511,561,-73
0,-400,15888,256,596,-81
0,-360,15904,256,578,-85
0,-320,15700,511,603,-79
0,-412,15652,511,568,-73
0,-392,15724,511,562,-75
0,-336,15648,511,580,-92
0,-344,15648,511,576,-108
0,-392,15652,511,572,-61
0,-308,15692,511,577,-83
0,-344,15616,511,568,-90
0,-360,15672,511,549,-117
0,-308,15644,511,561,-73
0,-384,15704,511,580,-96
0,-352,15896,256,603,-68
0,-340,15660,511,600,-79
0,-364,15680,511,584,-65
0,-392,15624,511,551,-44
0,-336,15668,511,590,-91
0,-336,15984,256,576,-79
0,-356,15916,256,596,-88
0,-336,15744,511,542,-94
0,-308,15904,256,571,-67
0,-332,15628,511,578,-114
0,-348,15668,511,558,-88
0,-400,15672,511,564,-55
0,-336,15924,256,547,-117
0,-640,16108,256,555,-84
0,-380,15628,511,583,-73
0,-612,15836,511,557,-88
0,-368,15648,511,577,-95
0,-348,15676,256,565,-82
0,-640,16064,256,572,-70
0,-360,15884,256,564,-96
0,-372,15636,511,570,-91
0,-356,15936,256,555,-70
0,-368,15708,511,568,-85
0,-324,15672,511,591,-106
0,-376,15640,511,574,-61
0,-340,15628,511,561,-69
0,-388,15672,511,545,-75
0,-332,15936,256,593,-85
0,-348,15616,511,562,-87
0,-380,15680,511,568,-71
0,-304,15652,511,593,-90
0,-400,15912,256,582,-80
0,-376,15700,511,595,-121
0,-660,15844,511,561,-95
0,-660,16112,256,549,-63
0,-368,15944,256,580,-61
0,-316,15620,511,600,-100
0,-364,15624,511,562,-87
0,-368,15924,256,578,-99
0,-336,15908,511,570,-96
0,-388,15660,511,556,-94
0,-364,15948,256,570,-104
0,-380,15664,511,615,-76
0,-376,15636,511,570,-122
0,-316,15688,511,585,-60
0,-388,15680,511,559,-57
0,-368,15668,511,584,-80
255,-616,15864,511,564,-87
0,-364,15928,256,583,-83
0,-352,15652,511,572,-98
0,-624,15864,511,572,-93
0,-428,15880,256,565,-93
0,-304,15676,511,585,-106
0,-436,15656,511,560,-64
0,-320,15948,256,571,-86
0,-444,15880,256,548,-81
0,-372,15756,511,584,-50
0,-340,15876,256,564,-86
0,-624,15852,256,570,-76
0,-340,15632,511,559,-62
0,-372,15628,511,584,-70
0,-416,15644,511,560,-91
0,-392,15684,511,598,-76
0,-364,15648,511,556,-57
0,-432,15936,256,587,-84
0,-328,15888,256,575,-93
0,-352,15676,511,564,-121
0,-400,15652,511,564,-52
0,-376,15900,256,558,-74
0,-688,16120,256,550,-70
0,-320,15980,256,570,-93
0,-364,15636,511,568,-90
0,-368,15708,511,591,-63
0,-376,15912,256,546,-43
0,-348,15872,256,582,-74
0,-652,15828,511,584,-95
0,-416,15684,511,584,-77
0,-384,15908,256,598,-80
0,-376,15632,511,552,-112
0,-328,15652,511,569,-42
0,-376,15664,511,569,-120
0,-288,15684,511,572,-84
0,-388,15928,256,578,-81
0,-380,15664,256,564,-89
0,-400,15908,256,577,-54
0,-372,15616,511,557,-100
0,-604,16124,256,565,-99
0,-400,15872,256,576,-44
0,-376,15644,511,549,-94
0,-392,15648,511,580,-36
0,-360,15676,511,609,-98
0,-628,16116,256,567,-107
0,-432,15952,256,551,-64
0,-360,15932,256,584,-92
0,-356,15628,511,611,-60
0,-336,15932,256,543,-67
0,-412,15652,511,554,-78
0,-384,15696,511,557,-80
0,-328,15924,256,578,-124
0,-356,15912,256,599,-66
0,-408,15672,511,575,-100
0,-612,16124,256,606,-93
255,-356,15672,511,569,-92
0,-388,15648,511,617,-82
0,-408,15952,256,586,-71
0,-412,15724,511,566,-81
0,-348,15912,256,570,-73
0,-364,15664,511,592,-86
0,-396,15904,256,550,-80
0,-380,15680,511,572,-59
0,-440,15688,511,589,-87
0,-400,15892,256,572,-81
0,-352,15628,511,589,-102
0,-580,15860,511,581,-90
0,-356,15656,511,567,-67
0,-400,15932,256,567,-127
0,-416,15652,511,577,-72
0,-336,15888,256,560,-109
0,-396,15700,511,563,-59
0,-368,15892,256,555,-58
0,-396,15652,511,610,-105
0,-376,15888,256,567,-107
0,-372,15668,511,555,-79
0,-412,15632,511,611,-70
0,-372,15720,511,572,-83
0,-380,15960,256,562,-62
0,-644,16100,256,559,-75
0,-368,15660,511,588,-70
0,-404,15664,511,583,-89
0,-384,15684,511,563,-114
0,-348,15656,511,602,-78
0,-648,15864,511,586,-79
0,-384,15872,256,573,-111
0,-384,15632,511,567,-99
0,-360,15660,511,596,-86
0,-332,15872,256,588,-70
0,-356,15704,511,568,-99
0,-380,15692,511,576,-83
0,-384,15680,511,603,-89
0,-384,15652,511,574,-93
0,-344,15644,511,561,-92
0,-360,15628,511,590,-85
0,-348,15632,511,579,-86
0,-408,15900,256,580,-74
0,-624,16120,256,586,-86
0,-376,15900,256,544,-81
0,-376,15692,511,555,-76
0,-368,15700,511,588,-61
0,-656,15868,511,582,-87
0,-652,15836,511,602,-66
0,-328,15644,511,601,-100
0,-636,15832,256,588,-87
0,-316,15904,256,588,-50
0,-372,15732,511,570,-92
0,-400,15880,256,569,-84
0,-372,15648,511,585,-59
0,-356,15928,256,563,-79
0,-312,15672,511,556,-68
0,-292,15960,256,571,-68
0,-340,15704,511,567,-71
0,-372,15704,511,596,-105
0,-368,15924,256,570,-66
0,-400,15912,256,557,-100
0,-372,15944,256,575,-44
0,-324,15916,256,577,-80
0,-328,15924,256,589,-86
0,-396,15688,511,579,-83
0,-324,15640,511,602,-77
0,-380,15648,511,591,-64
0,-344,15660,511,577,-70
0,-348,15628,511,593,-57
0,-360,15628,511,573,-80
0,-424,15640,511,587,-55
0,-316,15984,256,566,-84
0,-344,15624,511,579,-99
0,-272,15892,256,590,-68
0,-300,15640,511,567,-93
0,-384,15672,511,570,-85
0,-392,15896,256,569,-95
0,-368,15924,256,578,-106
0,-576,15856,511,576,-89
0,-376,15936,256,556,-73
0,-400,15908,256,549,-54
0,-616,16124,256,593,-93
0,-364,15688,511,573,-58
0,-384,15616,511,597,-71
0,-596,15848,511,572,-64
0,-384,15920,256,569,-67
0,-332,15632,511,569,-83
0,-400,15636,511,555,-77
0,-332,15688,511,580,-73
0,-392,15660,511,584,-88
0,-372,15676,511,553,-106
0,-304,15896,511,577,-79
0,-372,15704,511,555,-88
0,-376,15632,511,547,-84
0,-324,15652,511,578,-91
0,-344,15912,256,587,-88
0,-352,15644,511,560,-80
0,-384,15672,511,585,-83
0,-344,15944,256,589,-52
0,-356,15644,256,565,-106
255,-400,15640,511,582,-56
0,-388,15632,256,578,-66
0,-668,15868,511,557,-67
0,-364,15688,511,570,-86
0,-328,15924,256,589,-51
0,-384,15648,511,575,-103
0,-340,15924,256,543,-74
0,-328,15628,511,597,-98
0,-364,15916,256,558,-96
0,-436,15628,511,582,-69
0,-412,15636,511,598,-106
0,-352,15952,256,583,-92
0,-344,15656,511,553,-67
0,-372,15708,511,564,-96
0,-288,15940,256,588,-83
0,-356,15876,256,579,-108
0,-604,15856,511,576,-72
0,-360,15620,511,563,-87
0,-328,15636,511,549,-56
0,-384,15632,511,606,-72
0,-308,15672,511,600,-86
0,-368,15624,511,546,-61
0,-624,15868,511,590,-75
0,-384,15652,511,572,-51
0,-348,15696,511,568,-86
0,-380,15644,511,580,-79
0,-296,15632,511,583,-82
0,-388,15920,256,573,-95
0,-396,15936,256,578,-116
0,-412,15668,511,555,-90
0,-372,15672,511,586,-64
0,-404,15632,511,587,-80
0,-320,15652,511,585,-100
0,-380,15632,511,591,-80
0,-352,15648,511,568,-72
0,-316,15896,256,566,-81
0,-348,15932,256,568,-90
0,-356,15636,511,593,-113
0,-356,15656,511,581,-70
0,-392,15680,511,587,-57
0,-372,15656,511,551,-73
0,-384,15664,511,578,-101
0,-340,15672,511,590,-56
0,-376,15688,511,593,-63
0,-376,15628,511,584,-78
0,-368,15972,256,538,-82
0,-408,15704,511,603,-101
0,-428,15668,511,580,-58
0,-348,15968,256,574,-85
0,-380,15620,511,577,-83
0,-336,15648,511,605,-95
0,-380,15644,511,553,-80
0,-404,15680,511,567,-81
0,-348,15724,256,567,-57
0,-340,15644,511,600,-84
0,-412,15900,256,573,-100
0,-360,15628,511,586,-33
0,-348,15704,511,581,-135
0,-364,15912,256,599,-44
0,-384,15928,256,581,-73
0,-584,15868,511,584,-73
0,-308,15920,256,590,-115
0,-324,15648,511,571,-101
0,-392,15676,511,588,-69
0,-348,15956,256,576,-97
0,-356,15696,511,548,-87
0,-336,15952,256,618,-73
0,-396,15656,256,574,-96
256,-484,15656,511,564,-93
0,-372,15676,511,551,-62
0,-360,15688,511,603,-68
0,-392,15684,511,580,-84
0,-356,15672,511,552,-49
0,-608,16112,256,574,-84
0,-388,15672,511,589,-73
0,-608,15860,511,582,-108
0,-320,15644,511,556,-82
0,-332,15652,511,575,-76
0,-368,15884,256,576,-102
0,-352,15928,256,564,-75
0,-392,15904,256,574,-80
0,-604,15864,256,593,-77
0,-340,15628,511,550,-73
0,-336,15620,511,538,-89
0,-368,15872,256,570,-75
0,-352,15676,511,592,-90
0,-560,16112,256,549,-100
0,-432,15704,511,583,-97
0,-396,15932,256,567,-83
0,-400,15652,511,560,-84
0,-372,15908,256,579,-87
0,-364,15916,256,559,-101
0,-372,15688,511,554,-69
0,-368,15688,511,572,-72
0,-332,15660,511,583,-71
0,-368,15660,511,541,-61
0,-384,15668,511,589,-81
0,-328,15648,511,567,-74
0,-348,15928,256,583,-80
0,-372,15956,256,562,-73
0,-376,15688,511,574,-97
0,-368,15928,256,557,-88
0,-348,15924,256,566,-82
0,-380,15664,511,575,-97
0,-292,15872,256,586,-94
0,-608,16124,256,570,-86
0,-352,15624,511,582,-95
0,-400,15684,511,582,-74
0,-356,15708,511,554,-67
0,-364,15668,511,579,-84
0,-448,15680,511,573,-97
0,-408,15624,256,598,-66
0,-372,15660,511,581,-67
0,-620,15844,511,572,-101
0,-360,15676,511,588,-44
0,-412,15732,511,541,-79
0,-420,15640,511,609,-89
0,-360,15672,511,556,-92
0,-372,16016,256,590,-73
0,-400,15924,256,585,-86
0,-348,15676,256,571,-90
0,-656,15864,511,573,-89
0,-640,15864,511,571,-83
0,-384,15924,256,569,-85
0,-364,15672,511,563,-106
0,-400,15736,511,580,-69
0,-416,15660,511,597,-99
0,-392,15908,256,585,-99
0,-320,15640,511,565,-31
0,-392,15660,511,562,-51
0,-400,15664,511,609,-69
0,-388,15692,511,562,-73
0,-364,15708,511,588,-73
0,-384,15748,511,563,-97
0,-420,15664,511,565,-73
0,-388,15640,511,585,-112
0,-400,15668,511,567,-87
0,-332,15664,511,565,-67
0,-396,15892,256,563,-102
0,-368,15656,511,574,-86
0,-332,15644,511,561,-72
0,-404,15892,256,556,-94
0,-328,15652,511,560,-68
0,-400,15696,511,594,-109
0,-380,15700,511,608,-46
0,-352,15616,511,556,-62
0,-392,15652,511,597,-84
0,-328,15656,511,556,-85
0,-412,15632,511,573,-79
0,-672,15860,511,594,-83
0,-344,15636,511,556,-70
0,-352,16000,256,572,-91
0,-296,15644,511,567,-76
0,-384,15920,256,607,-72
0,-348,15672,511,574,-82
0,-388,15988,256,559,-61
0,-336,15692,511,606,-48
0,-660,16116,256,546,-84
0,-632,15864,511,561,-56
0,-372,15912,256,564,-71
0,-320,15876,256,573,-63
0,-300,15668,511,585,-72
0,-384,15696,511,581,-64
0,-424,15708,511,587,-55
0,-380,15688,511,577,-100
0,-360,15688,511,578,-68
0,-368,15620,511,584,-74
0,-364,15988,256,583,-98
0,-428,15664,256,570,-45
0,-420,15628,511,555,-70
0,-300,15964,256,584,-100
0,-372,15652,511,574,-58
0,-620,15868,511,564,-98
0,-360,15936,256,544,-78
0,-352,15620,511,596,-89
0,-400,15928,256,592,-93
0,-440,15668,511,592,-61
0,-448,15664,511,576,-72
0,-380,15700,256,571,-77
0,-344,15660,511,578,-108
0,-316,15904,256,576,-96
0,-356,15652,511,574,-87
0,-288,15644,511,572,-68
0,-388,15688,511,619,-77
0,-364,15632,511,562,-76
0,-412,15672,511,567,-84
0,-432,15652,511,572,-83
0,-336,15908,256,583,-81
0,-344,15956,256,569,-81
0,-360,15648,511,579,-85
0,-560,16120,256,578,-75
0,-316,15640,511,575,-89
0,-380,15684,511,578,-91
0,-356,15720,511,584,-80
0,-356,15936,256,600,-85
0,-324,15668,511,591,-68
0,-408,15884,256,554,-89
0,-408,15688,511,550,-62
0,-616,15844,511,583,-66
0,-344,15644,511,563,-98
0,-340,15624,256,559,-71
0,-412,15656,511,542,-65
0,-592,15864,511,582,-56
0,-384,15908,256,575,-84
0,-400,15952,256,564,-122
0,-380,15656,511,565,-78
0,-356,15876,256,593,-113
0,-332,15924,256,581,-115
0,-400,15912,256,562,-69
0,-348,15908,256,550,-94
0,-364,15688,511,586,-84
0,-316,15892,256,588,-83
0,-384,15684,511,554,-77
0,-392,15924,256,585,-60
0,-420,15696,511,576,-88
0,-320,15656,511,576,-81
0,-392,15636,511,572,-99
0,-648,15848,511,576,-60
0,-404,15664,511,577,-81
0,-420,15980,256,583,-68
0,-376,15664,511,568,-57
0,-400,15924,256,546,-89
0,-308,15648,511,570,-118
0,-400,15940,256,576,-55
0,-336,15688,511,597,-69
0,-584,16124,256,587,-63
0,-364,15640,511,574,-78
0,-396,15948,256,577,-101
0,-628,16096,256,570,-78
0,-372,16000,256,572,-58
0,-392,15688,511,559,-95
0,-372,15636,511,595,-79
0,-624,15856,511,566,-103
0,-404,15916,256,570,-100
0,-356,15648,511,584,-69
0,-356,15928,256,565,-99
0,-320,15668,511,567,-68
0,-612,16112,256,587,-106
0,-404,15664,511,566,-94
0,-380,15972,256,536,-63
0,-412,15916,256,556,-85
0,-392,15684,511,581,-88
0,-368,15656,511,548,-64
0,-396,15696,511,558,-42
0,-424,15760,511,603,-98
0,-364,15892,256,560,-89
0,-360,15624,256,583,-66
0,-380,15724,511,558,-84
0,-348,15640,511,566,-91
0,-340,15684,511,576,-83
0,-424,15684,511,557,-103
0,-400,15652,511,582,-88
0,-400,15896,256,572,-71
0,-368,15632,511,573,-106
0,-400,15620,511,552,-72
0,-388,15948,256,576,-80
0,-384,15952,256,574,-91
0,-368,15960,256,530,-77
0,-612,15840,511,571,-102
0,-404,15648,511,576,-105
0,-364,15636,511,581,-91
0,-588,15804,511,554,-64
0,-376,15636,511,568,-88
0,-396,15888,256,592,-94
0,-352,15912,256,580,-75
0,-604,15868,511,564,-100
0,-416,15696,511,584,-73
0,-360,15624,511,573,-100
0,-364,15960,256,572,-88
0,-420,15644,511,592,-49
0,-420,15628,511,582,-81
0,-372,15696,511,571,-99
0,-396,15680,511,572,-94
0,-368,15628,511,559,-78
0,-380,15708,511,571,-103
0,-360,15908,256,583,-70
0,-448,15628,511,569,-83
0,-356,15892,256,556,-74
0,-412,15616,511,570,-73
0,-392,15876,256,587,-103
0,-372,15968,256,575,-80
0,-392,15648,511,566,-55
0,-356,15632,511,590,-72
0,-600,16120,256,577,-95
0,-596,15868,511,591,-84
0,-388,15692,511,552,-109
0,-368,15640,511,574,-100
0,-368,15912,256,572,-88
0,-332,15964,256,582,-78
0,-412,15668,511,559,-82
0,-356,15692,511,568,-62
0,-336,15712,511,574,-109
0,-352,15648,511,542,-75
0,-340,15940,256,551,-76
0,-356,15628,511,575,-79
0,-396,15708,511,574,-78
0,-356,15656,511,568,-94
0,-400,15636,511,561,-89
0,-328,15932,256,579,-96
0,-340,15664,511,553,-98
0,-328,15636,511,597,-91
255,-412,15904,256,572,-59
0,-440,15668,511,590,-88
0,-320,15624,511,573,-81
0,-376,15652,511,566,-97
0,-676,15860,511,569,-95
0,-364,15916,256,562,-74
0,-376,15664,511,561,-88
0,-436,15900,256,586,-98
0,-412,15672,511,579,-57
0,-372,15660,511,600,-70
0,-360,15660,511,560,-93
0,-600,16104,256,563,-66
0,-340,15636,511,573,-91
0,-340,15684,511,557,-65
0,-376,15888,256,578,-103
0,-396,15688,511,572,-85
0,-344,15932,256,582,-66
0,-360,15708,511,567,-77
0,-360,15880,256,573,-98
0,-296,15672,511,572,-69
0,-336,15684,511,586,-86
0,-392,15736,511,553,-103
0,-420,15668,511,588,-43
0,-384,15680,511,578,-65
0,-332,15640,511,583,-84
0,-392,15696,511,580,-59
0,-640,15864,256,573,-66
0,-376,15924,256,607,-116
0,-616,15852,511,549,-81
0,-432,15660,511,573,-76
0,-420,15684,511,584,-87
0,-336,15936,256,543,-95
0,-304,15892,256,602,-79
0,-372,15676,511,591,-79
0,-380,15668,511,579,-79
0,-360,15652,511,571,-101
0,-340,15684,511,564,-79
0,-380,15920,256,573,-76
0,-420,15688,511,588,-53
0,-356,15624,511,601,-80
0,-396,15936,256,583,-79
0,-396,15664,511,603,-74
0,-380,15936,256,546,-80
0,-400,15628,511,555,-90
0,-356,15736,511,617,-74
0,-348,15616,511,541,-59
0,-336,15644,511,544,-61
0,-416,15948,256,564,-95
0,-424,15664,511,574,-103
0,-404,15680,511,574,-102
0,-392,15972,256,595,-89
0,-348,15656,511,569,-129
0,-348,15644,511,567,-87
0,-588,15860,511,570,-78
0,-356,15656,511,566,-86
0,-324,15908,256,546,-97
0,-352,15704,511,564,-78
0,-404,15636,511,565,-94
0,-348,15924,256,563,-99
0,-344,15660,511,590,-108
0,-432,15928,256,570,-82
0,-348,15704,511,550,-99
0,-316,15896,256,558,-102
0,-368,15616,511,580,-110
0,-648,16092,256,572,-66
0,-344,15632,511,618,-70
0,-368,15664,511,563,-65
0,-388,15916,256,569,-75
0,-312,15964,256,603,-97
0,-320,15920,256,582,-74
0,-388,15692,511,560,-88
0,-336,15924,256,582,-84
0,-368,15664,511,575,-81
0,-372,15888,256,571,-72
0,-328,15684,511,549,-81
0,-384,15660,511,588,-71
0,-392,15668,511,596,-86
0,-336,15876,256,570,-73
0,-368,15660,511,578,-99
0,-384,15656,511,568,-89
0,-320,15640,511,563,-92
0,-388,15932,256,539,-57
0,-540,15848,511,575,-88
0,-628,16120,256,589,-50
0,-360,15660,511,575,-79
0,-384,15884,256,599,-83
0,-388,15912,256,592,-82
0,-376,15684,511,582,-75
0,-316,15644,511,598,-54
0,-356,15900,256,568,-90
0,-384,15680,511,589,-100
0,-372,15708,511,571,-84
0,-384,15620,511,612,-103
0,-348,15892,256,551,-80
0,-400,15696,511,591,-55
0,-420,15652,511,580,-82
0,-396,15668,511,578,-105
0,-360,15688,511,582,-68
0,-364,15712,511,562,-79
0,-348,15636,511,582,-122
0,-384,15884,256,551,-115
0,-392,15928,256,569,-84
0,-304,15696,511,561,-88
0,-356,15916,256,568,-43
0,-396,15896,256,571,-84
0,-356,15880,256,570,-99
0,-640,15856,511,603,-87
0,-568,15808,511,611,-81
0,-380,15668,511,567,-72
0,-404,15640,511,571,-50
0,-308,15676,511,558,-75
0,-344,15920,256,585,-69
0,-352,15656,511,587,-63
0,-320,15904,256,563,-131
0,-324,15888,256,586,-66
0,-308,15912,256,572,-68
0,-400,15928,256,579,-93
0,-408,15656,511,567,-84
0,-376,15940,256,585,-81
0,-616,15868,511,564,-65
0,-364,15688,511,589,-92
0,-612,16124,256,575,-93
0,-392,15664,511,548,-102
0,-416,15952,256,588,-95
0,-400,15648,511,598,-94
0,-388,15912,256,583,-84
0,-372,15904,256,554,-84
0,-324,15972,256,562,-101
0,-388,15652,511,575,-100
0,-584,15856,511,538,-81
0,-352,15664,511,565,-92
0,-336,15636,511,559,-73
0,-412,15672,511,583,-87
0,-372,15672,511,574,-84
0,-600,16116,256,563,-81
0,-336,15664,511,549,-99
0,-372,15636,511,578,-108
0,-340,15644,511,580,-65
0,-336,15912,256,562,-68
0,-592,15860,511,578,-108
0,-384,15628,511,581,-88
0,-344,15660,511,554,-91
0,-380,15688,511,565,-83
0,-412,15684,511,597,-71
0,-304,15632,511,555,-77
0,-304,15664,511,587,-94
0,-364,15920,256,571,-88
0,-388,15728,511,570,-114
0,-320,15692,511,577,-46
0,-388,15652,256,577,-104
0,-348,15956,256,566,-90
0,-300,15664,511,577,-64
0,-408,15648,511,567,-85
0,-376,15692,511,566,-89
0,-352,15648,511,592,-78
0,-320,15632,511,538,-95
0,-592,15856,511,583,-93
0,-396,15928,256,576,-89
0,-368,15912,256,576,-111
0,-332,15644,511,579,-89
0,-360,15936,256,568,-102
0,-376,15916,256,567,-114
0,-320,15900,256,612,-61
0,-356,15648,511,553,-66
0,-336,15720,511,556,-101
0,-336,15660,511,614,-92
0,-364,15952,256,577,-64
0,-324,15676,511,595,-81
0,-340,15704,511,600,-68
0,-368,15700,511,588,-75
0,-376,15972,256,580,-88
0,-372,15656,511,561,-86
0,-320,15972,256,552,-54
0,-396,15640,511,595,-80
0,-396,15648,511,559,-76
0,-300,15904,256,582,-92
0,-360,15680,511,605,-109
0,-392,15640,511,577,-68
0,-324,15692,511,572,-70
0,-376,15672,511,575,-61
0,-360,15700,511,595,-78
0,-376,15644,511,571,-94
0,-304,15632,511,580,-98
0,-360,15620,511,551,-88
0,-388,15892,256,589,-50
0,-300,15660,511,570,-104
0,-328,15692,511,572,-102
0,-408,15660,511,585,-77
0,-368,15656,511,562,-69
0,-380,15660,511,574,-100
0,-348,15932,256,565,-97
0,-360,15684,511,549,-96
0,-340,15960,256,567,-116
0,-352,15932,256,560,-69
0,-620,15844,511,559,-102
0,-332,15720,511,594,-101
0,-392,15944,256,565,-65
0,-352,15680,511,583,-98
0,-600,15808,511,584,-88
0,-320,15640,511,577,-79
0,-404,15888,256,568,-79
0,-368,15952,256,581,-92
0,-684,16116,256,564,-79
0,-444,15696,511,571,-101
0,-464,15964,256,574,-70
0,-412,15952,256,588,-89
0,-420,15632,511,572,-73
0,-380,15916,256,578,-88
0,-368,15692,511,548,-103
0,-420,15696,511,609,-73
0,-336,15904,256,585,-79
0,-360,15976,256,556,-90
0,-316,15712,511,555,-70
0,-332,15952,256,582,-95
0,-336,15640,511,566,-88
0,-440,15680,511,547,-75
0,-388,15968,256,563,-92
0,-356,15948,256,562,-82
0,-356,15928,256,586,-58
0,-368,15728,511,543,-75
0,-396,15904,256,571,-73
0,-384,15884,256,582,-59
0,-376,15728,511,557,-81
0,-324,15644,511,573,-64
0,-356,15632,511,597,-77
0,-388,15644,511,564,-79
0,-380,15704,511,581,-108
0,-380,15692,511,566,-70
0,-376,15664,511,573,-109
0,-384,15620,511,592,-94
0,-408,15632,511,571,-69
0,-336,15656,256,575,-33
0,-344,15948,256,575,-61
0,-348,15688,511,524,-69
0,-428,15644,511,550,-75
0,-364,15948,256,569,-83
0,-340,15892,256,579,-73
0,-328,15892,256,596,-84
0,-368,15892,256,569,-86
0,-340,15692,511,566,-61
0,-340,15656,511,570,-68
0,-356,15676,511,564,-53
0,-424,15672,511,563,-100
0,-340,15640,511,565,-76
0,-336,15680,511,578,-64
0,-612,16096,256,566,-123
0,-404,15928,256,559,-94
0,-404,15644,511,582,-94
0,-372,15952,256,587,-92
0,-444,15684,511,571,-81
0,-404,15636,511,565,-84
0,-396,15636,511,564,-78
0,-348,15896,256,548,-69
0,-376,15668,511,574,-113
0,-348,15664,511,580,-68
0,-348,15928,256,574,-70
0,-376,15672,511,579,-71
0,-348,15912,256,564,-120
0,-404,15932,256,576,-58
0,-392,15676,511,581,-71
0,-636,15856,511,566,-87
0,-456,15688,511,570,-79
0,-380,15620,511,571,-74
0,-608,15868,511,579,-95
0,-368,15640,511,605,-92
0,-364,15616,511,560,-85
0,-380,15636,511,557,-69
0,-364,15644,511,572,-71
0,-416,15676,511,584,-90
0,-396,15664,511,562,-66
0,-376,15688,511,600,-87
0,-408,15688,511,562,-86
0,-448,16000,256,519,-60
0,-320,15964,256,572,-87
0,-460,15724,511,584,-89
0,-344,15704,511,552,-83
0,-400,15616,511,559,-60
0,-380,15616,511,593,-87
0,-360,15708,511,568,-99
0,-364,15952,256,546,-107
0,-368,15664,511,570,-92
0,-328,15648,511,572,-80
0,-452,15908,256,605,-91
0,-360,15616,511,576,-109
0,-312,15668,511,566,-108
0,-336,15652,511,554,-63
0,-328,15880,256,572,-90
0,-396,15948,256,557,-80
0,-384,15696,511,584,-76
0,-384,15648,511,576,-103
0,-336,15688,511,579,-111
0,-340,15884,256,577,-96
0,-340,15640,511,585,-85
0,-632,16104,256,578,-77
0,-348,15880,256,571,-95
0,-392,15964,256,592,-47
0,-396,15872,256,569,-80
0,-320,15928,256,588,-83
0,-340,15692,256,574,-51
0,-344,15672,511,568,-47
0,-416,15672,511,560,-90
0,-364,15668,511,570,-91
0,-368,15664,511,558,-69
0,-344,15908,256,576,-103
0,-392,15680,511,598,-91
0,-348,15696,511,568,-105
0,-328,15736,511,565,-92
0,-384,15944,256,575,-89
0,-344,15700,511,563,-104
0,-348,15672,511,561,-108
0,-412,15752,511,598,-82
0,-608,15840,511,605,-56
0,-424,15696,511,569,-80
0,-364,15912,256,565,-84
0,-384,15640,511,564,-96
0,-416,15656,511,592,-59
0,-360,15660,511,588,-57
0,-604,16080,256,568,-89
0,-388,15920,256,556,-98
0,-364,15980,256,595,-72
0,-400,15912,256,560,-67
0,-324,15632,511,539,-91
255,-320,15640,511,560,-89
0,-388,15888,256,573,-95
0,-364,15672,511,580,-77
0,-380,15640,511,563,-89
0,-376,15720,511,556,-97
0,-364,15668,511,563,-91
0,-328,15656,511,582,-83
0,-324,15664,511,572,-72
0,-324,15644,511,572,-83
0,-352,15680,511,567,-70
0,-332,15672,511,568,-89
0,-368,15896,256,575,-71
0,-372,15932,256,573,-88
0,-412,15932,256,569,-92
0,-368,15656,511,576,-79
0,-356,15904,256,546,-49
0,-372,15688,511,578,-86
0,-376,15632,511,573,-80
0,-396,15920,256,562,-88
0,-680,16124,256,566,-107
0,-380,15908,256,567,-70
0,-396,15660,511,587,-89
0,-364,15716,511,556,-70
0,-280,15728,511,569,-72
0,-336,15916,256,565,-83
0,-328,15884,256,567,-106
0,-364,15652,511,574,-109
0,-392,15932,256,586,-74
0,-384,15664,511,571,-114
0,-344,15616,511,587,-54
0,-368,15664,511,568,-82
0,-640,16088,256,554,-80
0,-332,15696,511,601,-79
0,-364,15876,256,546,-56
0,-604,15832,511,578,-99
0,-328,15660,511,588,-87
0,-352,15700,511,601,-101
0,-600,15860,511,587,-71
0,-384,15908,256,540,-79
0,-352,15616,511,564,-101
0,-376,15908,511,598,-69
0,-380,15700,511,570,-94
0,-592,15868,511,569,-70
0,-352,15616,511,570,-56
0,-336,15668,511,592,-94
0,-372,15628,511,574,-68
0,-588,15856,511,564,-63
0,-364,15920,256,566,-91
0,-388,15892,256,593,-79
0,-440,15632,511,580,-90
0,-388,15640,511,578,-86
0,-624,15864,511,559,-66
0,-368,15644,511,580,-80
0,-424,15672,511,588,-71
0,-332,15656,511,577,-113
0,-356,15904,256,602,-81
0,-320,15676,511,579,-83
0,-308,15876,256,575,-84
0,-372,15924,256,560,-55
0,-340,15976,256,586,-90
0,-372,15652,511,566,-72
0,-416,15884,256,578,-76
0,-644,15868,511,584,-86
0,-364,15656,511,602,-85
0,-376,15688,511,573,-70
0,-368,15640,511,569,-61
0,-364,15700,511,575,-52
0,-404,15940,256,582,-90
0,-372,15636,511,540,-82
0,-344,15648,511,586,-89
0,-360,15948,256,594,-77
0,-404,15956,256,569,-73
0,-384,15960,256,574,-110
0,-428,15908,256,552,-100
0,-320,15616,256,540,-103
0,-388,15684,511,580,-111
0,-372,15896,256,572,-44
0,-396,15624,511,548,-96
0,-348,15924,256,596,-93
0,-652,16108,256,594,-91
0,-288,15928,256,554,-77
0,-392,15648,511,580,-82
0,-328,15640,511,576,-94
0,-376,15944,256,602,-83
0,-640,15868,511,577,-80
0,-328,15960,256,570,-94
0,-396,15668,511,578,-70
0,-316,15948,256,603,-90
0,-648,15864,511,563,-75
0,-404,15636,511,568,-97
0,-340,15616,511,579,-70
0,-380,15672,511,609,-66
0,-352,15716,511,550,-73
0,-640,15852,511,578,-82
0,-340,15692,511,564,-74
0,-356,15708,511,601,-97
0,-356,15908,256,583,-66
0,-364,15656,511,562,-76
0,-344,15680,511,563,-103
0,-648,15836,511,576,-49
0,-392,15956,256,586,-101
0,-400,15668,511,558,-61
0,-356,15680,511,581,-90
0,-348,15644,511,562,-96
0,-372,15992,256,569,-60
0,-308,15660,511,563,-88
0,-368,15664,511,590,-80
0,-348,15968,256,553,-94
0,-372,15904,256,568,-55
0,-396,15904,256,571,-88
0,-324,15656,511,567,-94
0,-300,15932,256,589,-108
0,-324,15920,256,570,-48
0,-380,15648,511,577,-71
0,-332,15660,511,583,-92
0,-404,15632,511,587,-80
0,-372,15644,511,571,-67
0,-572,15856,511,581,-73
0,-328,15680,511,559,-83
0,-432,15904,256,574,-80
0,-364,15692,511,603,-61
0,-336,15908,256,550,-95
0,-372,15640,511,589,-88
0,-364,15956,256,580,-67
0,-388,15928,256,566,-82
0,-336,15940,256,591,-89
0,-396,15908,256,565,-69
0,-424,15628,511,582,-109
0,-348,15644,511,567,-84
0,-356,15708,511,557,-47
0,-356,15676,511,551,-88
0,-348,15648,511,583,-77
0,-320,15684,511,569,-99
0,-384,15900,256,579,-79
0,-336,15696,511,567,-70
0,-356,15704,511,579,-100
0,-372,15904,256,553,-82
0,-332,15620,511,577,-88
0,-372,15916,256,604,-91
0,-304,15876,256,593,-85
0,-364,15912,256,563,-84
0,-388,15656,511,557,-71
0,-348,15696,511,562,-65
0,-280,15920,511,562,-90
0,-344,15676,511,566,-71
0,-380,15940,256,577,-103
0,-412,15896,256,553,-83
0,-332,15624,511,590,-79
0,-388,15912,256,577,-100
0,-388,15648,511,598,-97
0,-328,15944,511,571,-75
0,-312,15628,511,578,-84
0,-360,15640,511,564,-98
0,-348,15732,511,551,-87
0,-324,15644,511,576,-83
0,-332,15636,511,590,-97
0,-372,15648,511,576,-91
0,-404,15892,256,583,-95
0,-372,15652,511,603,-77
0,-376,15712,511,556,-56
0,-352,15616,511,551,-100
0,-356,15696,511,552,-72
0,-364,15684,511,582,-99
0,-296,15876,256,545,-55
0,-404,15712,511,558,-109
0,-332,15900,256,572,-76
0,-276,15880,256,595,-79
0,-348,15644,511,559,-57
0,-344,15672,511,580,-81
0,-372,15660,511,575,-95
0,-312,15708,511,536,-85
0,-312,15684,511,593,-86
0,-396,15660,511,578,-87
0,-380,15652,511,580,-83
0,-636,16108,256,558,-69
0,-384,15960,256,579,-67
0,-332,15640,511,558,-79
0,-364,15912,256,544,-99
0,-388,15692,511,605,-88
0,-628,15860,511,587,-74
0,-448,15688,511,589,-105
0,-364,15660,511,536,-85
0,-352,15644,511,592,-93
0,-372,15932,256,591,-85
0,-348,15644,511,581,-89
0,-372,15632,256,577,-87
0,-616,15832,511,579,-67
0,-364,15892,256,583,-98
0,-380,15648,511,604,-59
0,-384,15660,511,571,-85
0,-408,15896,256,582,-47
0,-348,15632,511,576,-80
0,-616,15856,511,563,-98
0,-400,15644,511,548,-92
0,-404,15636,511,580,-73
0,-336,15664,511,601,-48
0,-412,15880,256,558,-76
0,-336,15924,256,575,-71
0,-376,15920,256,554,-65
0,-596,15832,511,533,-108
0,-408,15920,256,592,-90
0,-396,15664,511,554,-96
0,-360,15628,511,590,-82
0,-384,15680,511,592,-84
0,-372,15676,511,585,-93
0,-296,15636,256,560,-80
0,-388,15672,511,586,-95
0,-408,15920,256,593,-88
0,-648,16116,256,591,-93
0,-360,15656,511,575,-92
0,-356,15616,511,580,-70
0,-316,15628,511,569,-66
0,-288,15704,511,575,-89
0,-356,15920,256,576,-99
0,-352,15692,511,568,-84
0,-328,15920,256,583,-56
0,-320,15700,511,561,-92
0,-412,15960,256,592,-65
0,-396,15656,511,564,-67
0,-368,15928,256,552,-94
0,-340,15648,511,543,-75
0,-368,15936,256,577,-104
0,-576,16116,256,601,-89
0,-344,15684,511,588,-66
0,-320,15920,256,580,-61
0,-308,15708,511,576,-101
0,-300,15672,511,576,-98
0,-340,15920,256,594,-100
0,-356,15904,256,578,-70
0,-388,15676,511,554,-78
0,-360,15684,511,577,-81
0,-376,15620,511,604,-77
0,-396,15672,511,589,-72
0,-368,15952,256,579,-104
0,-396,15724,511,578,-75
0,-368,15648,511,583,-111
0,-408,15964,256,582,-72
0,-368,15876,256,584,-52
0,-628,15856,511,598,-91
0,-408,15644,511,606,-86
0,-380,15620,511,581,-90
0,-348,15644,511,593,-57
0,-348,15972,256,570,-49
0,-340,15668,511,575,-75
0,-376,15672,511,575,-53
0,-356,15636,511,564,-87
0,-404,15892,256,555,-57
0,-388,15648,511,558,-86
0,-344,15676,511,589,-117
0,-376,15672,511,567,-88
0,-340,15924,256,564,-99
0,-400,15624,511,582,-94
0,-324,15640,511,584,-70
0,-376,15988,256,593,-70
0,-336,15684,511,586,-59
0,-376,15648,511,572,-75
0,-340,15668,511,586,-80
0,-404,15624,511,570,-64
0,-288,15672,511,562,-85
0,-372,15688,511,577,-81
0,-352,15616,511,566,-79
0,-332,15684,511,591,-75
0,-388,15756,511,584,-85
0,-392,15960,256,588,-59
0,-404,15664,511,576,-81
0,-368,15688,511,559,-67
0,-344,15924,256,592,-101
0,-320,15652,511,599,-87
0,-364,15668,511,591,-61
0,-372,15628,511,545,-70
0,-340,15628,511,569,-100
0,-328,15680,511,589,-74
0,-364,15660,511,567,-76
0,-352,15668,511,586,-98
0,-368,15680,511,566,-63
0,-424,15704,511,588,-98
0,-328,15700,511,537,-111
0,-380,15896,256,608,-86
0,-316,15916,256,574,-71
0,-384,15684,511,546,-81
0,-388,15876,256,578,-110
0,-612,15836,511,614,-82
0,-624,15848,511,553,-93
0,-388,15916,256,599,-70
0,-664,15836,511,564,-70
0,-380,15940,256,575,-84
0,-624,15868,511,579,-99
0,-352,15644,511,558,-85
0,-312,15652,511,569,-86
0,-560,15844,511,581,-73
0,-432,15880,256,575,-93
0,-628,15868,511,599,-104
0,-440,15940,256,554,-70
0,-380,15656,511,557,-53
0,-352,15652,511,561,-85
0,-356,15916,256,562,-92
0,-396,15728,511,611,-65
0,-312,15964,256,545,-101
0,-376,15640,511,581,-86
0,-356,15668,511,565,-90
0,-300,15880,256,587,-74
0,-380,15620,256,571,-90
0,-400,15636,511,581,-92
0,-384,15620,511,555,-87
0,-304,15652,511,579,-50
0,-392,15640,511,556,-86
0,-296,15968,256,569,-92
0,-636,16120,256,564,-60
0,-356,15648,511,574,-97
0,-672,15864,511,591,-75
0,-324,15636,511,576,-65
0,-464,15620,511,567,-75
0,-376,15656,511,605,-107
0,-388,15632,511,577,-74
0,-344,15912,256,565,-83
0,-336,15924,256,572,-111
0,-356,16012,256,570,-104
0,-316,15988,256,576,-99
0,-276,15900,256,572,-79
0,-316,15684,511,596,-52
0,-360,15628,511,607,-98
0,-624,15864,511,568,-37
0,-388,15960,256,535,-66
0,-340,15644,511,556,-105
0,-364,15924,256,577,-80
0,-388,15624,511,575,-108
0,-432,15660,511,556,-73
0,-344,15636,511,566,-56
0,-356,15712,511,570,-69
0,-380,15688,511,572,-60
0,-376,15684,511,581,-96
0,-444,15620,511,579,-66
0,-344,15912,256,551,-111
0,-320,15916,256,593,-83
0,-580,15836,511,548,-81
0,-352,15684,511,595,-62
0,-332,15656,511,596,-84
0,-360,15980,256,593,-75
0,-380,15980,256,554,-102
0,-392,15928,256,546,-105
0,-356,15872,256,579,-71
0,-360,15912,256,556,-71
0,-404,15664,511,568,-79
0,-440,15876,256,577,-61
0,-356,15640,511,562,-72
0,-428,15656,511,575,-109
0,-388,15728,511,584,-96
0,-372,15900,256,594,-103
0,-344,15880,256,589,-53
0,-628,15844,511,585,-86
0,-396,15884,256,559,-97
0,-336,15900,256,565,-85
0,-372,15908,256,581,-95
0,-384,15952,256,578,-32
0,-340,15656,511,593,-83
0,-356,15920,256,565,-62
0,-368,15872,256,563,-78
0,-324,15644,511,561,-56
0,-352,15908,256,558,-107
0,-608,16112,256,592,-75
0,-644,15856,511,573,-46
0,-644,15804,511,562,-65
0,-416,15952,256,584,-56
0,-328,15640,511,620,-77
0,-332,15712,511,593,-109
0,-376,15632,511,578,-71
0,-368,15876,256,552,-63
0,-384,15912,256,595,-105
0,-356,15616,511,604,-63
0,-400,15632,511,568,-77
0,-644,15844,511,578,-72
0,-368,15664,511,561,-67
0,-612,15868,511,576,-68
0,-348,15660,511,572,-88
0,-344,15700,511,563,-112
0,-668,15856,511,550,-66
0,-344,15620,511,575,-93
0,-384,15700,511,584,-105
0,-296,15616,511,566,-86
0,-340,15884,256,579,-86
0,-332,15692,511,584,-76
0,-328,15936,256,568,-104
0,-348,15920,256,605,-115
0,-420,15924,256,593,-61
0,-316,15676,511,561,-72
0,-368,15620,511,564,-82
0,-380,15680,511,578,-43
0,-380,15644,511,557,-76
0,-388,15684,511,567,-71
0,-312,15888,256,546,-97
0,-360,15892,256,576,-89
0,-348,15880,256,584,-69
0,-392,15884,256,555,-89
0,-312,15876,256,578,-84
0,-272,15660,511,584,-45
0,-344,15620,511,574,-118
0,-364,15688,511,572,-89
0,-372,15696,511,595,-77
0,-364,15920,256,561,-93
0,-372,15652,511,577,-65
0,-336,15700,511,573,-86
0,-340,15684,511,572,-84
0,-396,15620,511,570,-51
0,-292,15680,511,590,-52
0,-284,15644,511,568,-97
0,-424,15652,511,603,-80
0,-384,15668,511,570,-92
0,-416,15660,511,576,-93
0,-360,15676,511,562,-72
0,-380,15892,256,554,-103
0,-344,15680,511,568,-93
0,-360,15668,511,586,-98
0,-320,15652,511,573,-89
0,-348,15948,256,557,-91
0,-360,15944,256,576,-102
0,-316,15616,511,564,-73
0,-436,15884,256,578,-92
0,-364,15644,511,581,-117
0,-408,15672,511,548,-75
0,-356,15904,256,582,-67
0,-396,15648,511,567,-88
0,-368,15656,511,566,-87
0,-364,15640,511,573,-111
0,-376,15688,511,586,-93
0,-352,15632,511,575,-91
0,-344,15660,511,577,-71
0,-392,15652,511,588,-86
0,-348,15656,511,563,-63
0,-392,15700,511,582,-113
0,-428,15936,256,582,-113
0,-312,15908,256,570,-60
0,-384,15712,511,578,-75
0,-324,15660,511,576,-98
0,-352,15876,256,590,-91
0,-364,15728,511,580,-103
0,-356,15888,256,577,-108
256,-508,15896,256,567,-88
0,-380,15656,511,565,-98
0,-360,15620,511,559,-89
0,-376,15680,511,564,-75
0,-376,15692,511,565,-111
0,-380,15892,256,583,-56
0,-368,15908,256,584,-47
0,-340,15644,511,559,-113
0,-360,15648,511,580,-110
0,-352,15616,511,575,-71
0,-596,15856,511,576,-52
0,-352,15616,511,593,-63
0,-360,15952,256,558,-81
0,-384,15920,256,589,-90
0,-328,15684,511,567,-70
0,-380,15912,256,609,-69
0,-400,15616,511,571,-98
0,-336,15660,511,554,-84
0,-544,15848,511,588,-79
0,-368,15656,511,560,-65
0,-424,15692,256,593,-90
0,-348,15912,256,586,-98
0,-340,15656,256,589,-67
0,-364,15632,511,581,-71
0,-364,15896,256,539,-88
0,-344,15960,256,566,-67
0,-360,15956,511,566,-82
0,-348,15636,511,554,-96
0,-572,15856,511,558,-67
0,-284,15656,511,577,-71
0,-380,15912,256,576,-97
0,-332,15680,511,566,-73
0,-360,15948,256,571,-86
0,-380,15676,511,567,-100
0,-368,15692,511,574,-42
0,-284,15684,511,592,-90
0,-336,15696,511,592,-73
0,-340,15688,511,599,-81
0,-652,15868,511,595,-100
0,-360,15652,511,584,-84
0,-332,15644,511,549,-71
0,-296,15912,256,576,-74
0,-420,15628,511,569,-66
0,-388,15884,256,578,-90
0,-376,15880,256,576,-95
0,-340,15616,511,570,-44
0,-424,15668,511,556,-66
0,-376,15676,511,572,-86
0,-372,15688,511,547,-118
0,-376,15632,511,569,-93
0,-336,15660,511,565,-40
0,-380,15924,256,601,-89
0,-360,15896,256,576,-65
0,-344,15704,511,573,-97
0,-380,15676,511,590,-77
0,-340,15944,256,582,-69
0,-380,15648,511,585,-86
0,-380,15696,511,603,-81
0,-320,15636,511,573,-108
0,-336,15684,511,563,-47
0,-280,15880,256,547,-84
0,-404,15928,256,566,-49
0,-332,15892,256,594,-94
0,-416,15720,511,565,-110
0,-372,15644,511,576,-77
0,-332,15988,256,567,-103
0,-624,15852,511,558,-75
0,-360,15656,511,576,-74
0,-348,15648,511,590,-70
0,-380,15652,256,568,-77
0,-628,15868,511,556,-81
0,-380,15908,256,594,-84
0,-312,15632,511,601,-84
0,-308,15688,511,552,-96
0,-304,15648,511,601,-85
0,-340,15664,511,558,-97
0,-344,15652,511,571,-71
0,-376,15660,511,559,-64
0,-332,15628,511,601,-80
0,-416,15908,256,579,-64
0,-652,16120,256,550,-68
0,-320,15648,511,583,-73
0,-388,15652,511,607,-88
0,-328,15696,511,569,-77
0,-588,15868,511,560,-64
0,-368,15684,511,574,-88
0,-396,15620,511,592,-80
0,-364,15640,511,577,-84
0,-388,15732,511,584,-88
0,-360,15704,511,565,-68
0,-368,15904,256,600,-79
0,-392,15720,511,542,-90
0,-364,15676,511,559,-89
0,-388,15872,256,585,-105
0,-608,15832,511,551,-61
0,-396,15660,511,575,-100
0,-372,15692,511,573,-90
0,-368,15712,511,584,-82
0,-636,15864,511,571,-63
0,-392,15684,511,568,-70
0,-420,15644,511,545,-93
0,-332,15704,511,581,-88
0,-352,15632,511,565,-77
0,-356,15668,511,561,-80
0,-360,15652,511,577,-63
0,-348,15676,511,574,-73
0,-332,15636,511,577,-80
0,-356,15696,511,566,-87
0,-360,15672,511,547,-90
0,-364,15700,511,566,-99
0,-376,15640,511,564,-109
0,-356,15680,511,568,-74
0,-352,15932,256,587,-86
0,-348,15668,511,586,-109
0,-404,15624,511,561,-105
0,-364,15900,256,585,-64
0,-408,15944,256,572,-101
0,-380,15928,256,536,-91
0,-376,15652,511,576,-82
0,-672,15864,511,590,-93
0,-388,15648,511,570,-82
0,-356,15664,511,558,-85
0,-360,15644,511,584,-85
0,-368,15652,511,574,-75
0,-328,15680,511,608,-107
0,-324,15640,511,565,-85
0,-384,15680,511,552,-92
0,-600,15864,511,548,-66
0,-348,15880,256,614,-71
0,-368,15920,256,567,-80
0,-352,15908,256,570,-81
0,-380,15944,256,593,-66
0,-332,15692,511,599,-59
0,-424,15940,256,555,-110
0,-328,15692,511,582,-79
0,-380,15912,256,574,-87
0,-336,15716,511,560,-99
0,-364,15648,511,580,-77
0,-356,15928,256,606,-113
0,-348,15944,256,571,-75
0,-324,15636,511,575,-86
0,-352,15672,511,574,-94
0,-400,15924,256,565,-73
0,-324,15680,511,602,-66
0,-372,15696,511,576,-66
0,-400,15688,511,588,-86
0,-356,15928,256,564,-55
0,-404,15660,511,564,-69
0,-344,15700,511,577,-69
0,-344,15920,256,604,-63
0,-460,15924,256,572,-84
0,-336,15884,256,566,-65
0,-336,15652,511,591,-103
0,-368,15676,511,568,-100
0,-368,15652,511,552,-83
0,-356,15644,511,602,-51
0,-316,15908,256,555,-103
0,-288,15724,511,595,-54
0,-372,15632,511,580,-96
0,-332,15620,256,585,-71
0,-368,15672,511,590,-70
0,-340,15656,511,573,-86
0,-376,15924,256,545,-66
0,-348,15912,256,549,-70
0,-616,15848,511,576,-95
0,-356,15704,511,588,-76
0,-380,15620,511,590,-107
0,-308,15920,256,557,-82
0,-584,15848,511,576,-66
0,-332,15652,511,570,-46
0,-376,15664,511,592,-98
0,-396,15692,511,588,-102
0,-344,15652,511,574,-97
0,-372,15644,256,577,-73
0,-356,15916,256,612,-84
0,-344,15940,256,581,-86
0,-452,15640,511,580,-72
0,-376,15924,256,560,-61
0,-384,15912,256,584,-78
0,-376,15712,511,593,-90
0,-392,15652,511,547,-61
0,-320,15896,256,558,-80
0,-364,15640,511,583,-51
0,-348,15656,511,555,-102
0,-584,15840,511,552,-100
0,-372,15652,511,569,-65
0,-284,15960,256,578,-100
0,-356,15968,256,559,-65
0,-380,15956,256,577,-78
0,-388,15940,256,586,-113
0,-324,15616,511,575,-80
0,-396,15960,256,590,-81
0,-296,15932,256,560,-72
0,-312,15664,511,563,-68
0,-396,15904,256,573,-119
0,-392,15884,256,547,-82
0,-396,15904,256,591,-63
0,-408,15700,511,589,-99
0,-372,15656,511,557,-84
0,-600,15860,511,574,-80
0,-312,15664,511,544,-80
0,-396,15680,511,570,-96
0,-320,15624,511,585,-73
0,-316,15880,256,549,-84
0,-364,15692,511,580,-85
0,-364,15912,256,586,-82
0,-384,15680,511,590,-84
0,-444,15684,511,561,-85
0,-652,15868,256,549,-74
0,-380,15656,511,583,-74
0,-400,15652,511,566,-71
0,-396,15644,511,553,-78
0,-360,15676,511,573,-77
0,-412,15960,256,579,-67
0,-328,15680,511,590,-75
0,-412,15696,511,570,-91
0,-320,15928,256,590,-81
0,-368,15672,511,545,-88
0,-388,15884,256,562,-53
0,-384,15632,511,569,-76
0,-348,15984,256,603,-88
0,-336,15900,511,556,-73
0,-364,15632,511,564,-93
0,-396,15644,511,604,-94
0,-296,15616,511,556,-78
0,-340,15648,511,566,-96
0,-344,15632,511,565,-86
0,-344,15644,511,577,-74
0,-396,15628,511,604,-73
0,-416,15928,256,573,-70
0,-376,15620,511,576,-93
0,-408,15644,511,560,-100
0,-624,15852,511,586,-98
0,-368,15696,511,578,-87
0,-400,15952,256,573,-73
0,-344,15696,511,589,-74
0,-280,15708,511,563,-83
0,-304,15876,256,603,-71
0,-408,15668,511,577,-78
0,-412,15872,256,568,-82
0,-396,15688,511,582,-98
0,-340,15884,256,555,-79
0,-628,15864,511,590,-82
0,-316,15628,511,583,-91
0,-344,15704,511,578,-69
0,-388,15688,256,557,-106
0,-344,15668,511,571,-94
0,-364,15900,256,577,-70
0,-384,15928,256,596,-86
0,-596,16112,256,581,-88
0,-404,15656,511,576,-93
0,-296,15652,511,586,-75
0,-336,15724,511,566,-102
0,-372,15616,511,553,-116
0,-380,15712,511,586,-108
0,-364,15656,511,582,-94
0,-352,15632,511,549,-58
0,-332,15900,256,568,-58
0,-412,15680,511,544,-94
0,-376,15908,256,583,-87
0,-380,15744,256,576,-56
0,-388,15712,511,534,-102
0,-380,15956,256,594,-75
0,-332,15880,256,564,-98
0,-380,15936,256,575,-64
0,-360,15692,511,574,-88
0,-340,15652,511,567,-88
0,-352,15628,511,586,-75
0,-364,15628,511,545,-109
0,-316,15908,256,570,-56
0,-416,15620,511,613,-48
0,-384,15672,511,564,-84
0,-388,15656,511,551,-85
0,-372,15692,511,555,-92
0,-352,15652,511,564,-79
0,-428,15692,511,573,-80
0,-320,15624,511,559,-104
0,-360,15652,511,588,-98
0,-336,15680,511,579,-85
0,-388,15740,511,580,-86
0,-604,16100,256,568,-82
0,-320,15940,256,558,-70
0,-396,15928,256,563,-71
0,-396,15944,256,552,-56
0,-624,15832,511,545,-77
0,-360,15656,511,556,-70
0,-328,15620,511,578,-84
0,-396,15632,511,564,-86
256,-508,15664,511,561,-80
0,-316,15644,511,589,-86
0,-372,15652,511,568,-47
0,-400,15668,511,573,-93
0,-344,15964,256,561,-89
0,-380,15688,511,592,-101
0,-388,15684,511,561,-85
0,-340,15652,511,585,-114
0,-412,15940,256,579,-89
0,-616,16120,256,570,-102
0,-688,15868,256,569,-89
0,-376,15620,511,585,-91
0,-612,16120,256,543,-83
0,-400,15920,256,589,-54
0,-416,15656,511,568,-80
0,-424,15740,511,567,-91
0,-364,15940,256,595,-77
0,-364,15692,511,574,-82
0,-340,15620,511,569,-69
0,-668,16124,256,571,-92
0,-392,15944,256,584,-104
0,-416,15936,256,561,-89
0,-428,15880,256,594,-101
0,-320,15648,511,585,-103
0,-356,15664,511,573,-76
0,-292,15928,256,539,-90
0,-360,15700,511,588,-117
0,-320,15644,511,557,-85
0,-416,15672,511,591,-51
0,-468,15916,256,544,-67
0,-364,15700,511,544,-70
0,-408,15928,256,617,-86
0,-372,15668,511,572,-85
0,-384,15972,256,563,-79
0,-368,15644,511,589,-86
0,-420,15904,256,558,-76
0,-360,15900,256,559,-95
0,-344,15960,256,574,-97
0,-364,15924,256,587,-66
0,-368,15648,511,554,-113
0,-368,15672,511,568,-75
0,-380,15644,511,597,-106
0,-368,15672,511,564,-107
0,-376,15968,256,544,-97
0,-396,15708,511,582,-82
0,-360,15656,511,548,-57
0,-372,15872,256,561,-70
0,-632,15868,511,580,-105
0,-400,15712,511,567,-80
0,-356,15672,511,570,-98
0,-292,15716,511,565,-81
0,-428,15688,511,554,-84
0,-308,15720,511,567,-98
0,-376,15624,511,542,-83
0,-360,15636,511,573,-65
0,-360,15684,511,574,-45
0,-372,15636,511,564,-111
0,-388,15944,256,592,-60
0,-308,15640,511,578,-100
0,-336,15988,256,580,-90
0,-380,15904,256,548,-101
0,-304,15660,511,570,-105
0,-336,15660,511,548,-109
0,-328,15664,511,583,-81
0,-312,15912,256,566,-83
0,-332,15920,256,597,-57
0,-344,15688,511,521,-92
0,-332,15648,511,590,-98
0,-332,15640,511,567,-62
0,-348,15676,511,570,-76
0,-328,16004,256,589,-105
0,-352,15728,511,561,-70
0,-324,15632,511,598,-104
0,-384,15896,256,570,-94
0,-352,15624,511,578,-94
0,-372,15928,256,601,-57
0,-324,15656,511,580,-83
0,-384,15672,511,593,-74
0,-328,15876,256,590,-65
0,-356,15652,511,584,-89
0,-380,15644,511,581,-102
0,-376,15728,511,556,-58
0,-400,15660,511,593,-93
0,-380,15920,256,535,-103
0,-384,15644,511,555,-75
0,-392,15628,511,593,-112
0,-260,15648,511,563,-100
0,-380,15644,511,554,-94
0,-640,16104,256,576,-89
0,-424,15884,256,572,-87
0,-304,15628,511,581,-95
0,-324,15956,256,591,-69
0,-328,15676,511,566,-118
0,-380,15956,256,602,-69
0,-364,15888,256,576,-52
0,-376,15676,511,551,-89
0,-268,15680,511,593,-100
0,-304,15660,511,586,-59
0,-396,15668,511,570,-71
0,-348,15916,256,566,-76
0,-376,15908,256,559,-88
0,-384,15672,511,561,-87
0,-356,15904,256,600,-84
0,-356,15708,511,573,-72
0,-376,15712,511,556,-82
0,-312,15648,511,583,-111
0,-360,15936,256,531,-123
0,-656,16104,256,556,-105
0,-320,15700,511,570,-70
0,-404,15928,256,599,-97
0,-632,16120,256,585,-88
0,-628,15828,511,574,-108
0,-648,16072,256,570,-92
0,-392,15892,511,579,-76
0,-420,15888,256,595,-74
0,-332,15916,256,584,-79
0,-388,15692,511,575,-64
0,-420,15700,511,559,-66
0,-332,15672,511,537,-123
0,-360,15892,256,588,-85
0,-352,15944,256,578,-113
0,-364,15672,511,575,-89
0,-392,15704,511,566,-88
0,-416,15928,256,552,-92
0,-432,15656,511,604,-87
0,-328,15932,256,554,-80
0,-412,15692,511,562,-84
0,-376,15700,511,600,-70
0,-324,15660,511,573,-84
0,-340,15676,511,555,-71
0,-360,15680,511,587,-71
0,-360,15656,511,600,-97
0,-356,15724,511,593,-79
0,-400,15932,256,571,-90
0,-424,15944,256,580,-97
0,-424,15668,511,555,-112
0,-332,15720,511,596,-127
0,-332,15680,511,586,-66
0,-364,15708,511,575,-64
0,-368,15880,256,583,-81
0,-424,15700,511,585,-91
0,-372,15908,256,551,-43
0,-460,15908,256,580,-73
0,-316,15972,256,555,-89
0,-360,15936,256,573,-102
0,-344,15676,511,575,-42
0,-384,15656,511,564,-109
0,-380,15632,511,594,-70
0,-668,16104,256,564,-57
0,-632,16096,256,565,-86
0,-376,15884,256,593,-66
0,-356,15912,256,568,-89
0,-360,15732,256,586,-80
0,-356,15948,256,601,-78
0,-336,15676,511,564,-74
0,-376,15684,511,596,-98
0,-352,15700,511,592,-104
0,-608,15868,511,569,-91
0,-380,15644,511,597,-56
0,-412,15652,511,578,-86
0,-352,15936,256,582,-82
0,-360,15888,256,549,-99
0,-320,15648,511,569,-64
0,-328,15888,256,597,-78
0,-376,15920,256,583,-73
0,-340,15692,511,598,-95
0,-600,15868,511,564,-110
0,-368,15740,511,536,-75
0,-368,15936,256,599,-73
0,-604,16100,256,581,-84
0,-416,15920,256,560,-56
0,-356,15908,256,582,-82
0,-412,15892,256,583,-89
0,-340,15924,256,564,-95
0,-348,15696,511,589,-95
0,-320,15680,511,560,-74
0,-364,15968,256,590,-57
0,-384,15616,511,573,-60
0,-396,15676,511,575,-83
0,-348,15940,256,562,-108
0,-336,15684,511,553,-95
0,-436,15652,511,598,-88
0,-340,15908,256,565,-71
0,-324,15656,511,589,-73
0,-380,15664,511,583,-88
0,-420,15972,256,582,-79
0,-396,15664,511,560,-100
0,-352,15908,256,561,-102
0,-348,15636,511,593,-90
0,-340,15684,511,575,-79
0,-372,15640,511,568,-62
0,-380,15956,256,566,-98
0,-336,15652,511,578,-78
0,-376,15936,256,590,-61
0,-316,15652,511,603,-53
0,-376,15680,511,546,-77
0,-392,15700,256,544,-88
0,-352,15880,256,581,-55
0,-348,15904,256,592,-88
0,-368,15920,256,574,-85
0,-388,15712,511,566,-53
0,-428,15636,511,565,-74
0,-368,15644,511,531,-84
0,-372,15624,511,597,-80
0,-388,15636,511,557,-87
0,-344,15900,256,569,-81
0,-360,15696,511,561,-77
0,-680,16112,256,578,-100
0,-644,15828,511,552,-81
0,-376,15648,511,555,-67
0,-364,15684,511,574,-79
0,-400,15660,511,581,-97
0,-344,15924,256,576,-43
0,-636,15868,511,554,-77
0,-396,15892,256,575,-72
0,-356,15916,256,550,-73
0,-396,15664,511,559,-57
0,-360,15664,511,564,-97
0,-380,15936,256,574,-134
0,-408,15916,256,577,-30
0,-340,15664,511,581,-77
0,-336,15628,511,570,-119
0,-340,15692,511,560,-107
0,-396,15668,511,554,-65
0,-396,15660,511,594,-87
0,-336,15872,256,582,-94
0,-328,15628,511,600,-96
0,-356,15632,511,582,-59
0,-376,15668,511,555,-100
0,-648,16116,256,571,-70
0,-384,15632,511,581,-82
0,-328,15624,511,554,-84
0,-384,15664,511,583,-87
0,-632,16112,256,582,-71
0,-388,15972,256,582,-83
0,-336,15768,511,541,-87
0,-628,15828,511,597,-92
0,-336,15712,511,549,-100
0,-396,15624,511,576,-93
0,-336,15620,511,590,-60
0,-388,15640,511,540,-73
0,-400,15704,511,587,-94
0,-388,15620,511,559,-81
0,-384,15632,511,569,-92
0,-352,15664,511,577,-91
0,-600,15860,511,568,-85
0,-364,15968,256,551,-78
0,-400,15628,511,592,-78
0,-392,15688,511,577,-85
0,-348,15892,256,573,-75
0,-348,15660,511,560,-100
0,-612,15868,511,592,-110
0,-336,15896,256,551,-78
0,-348,15700,511,578,-84
0,-388,15688,511,565,-84
0,-364,15632,511,576,-80
0,-368,15692,511,584,-64
0,-392,15624,511,571,-85
0,-352,15948,256,561,-74
0,-392,15628,511,561,-83
0,-388,15952,256,560,-79
0,-404,15700,511,564,-75
0,-404,15660,511,580,-124
0,-392,15652,511,568,-62
0,-632,16080,256,559,-95
0,-336,15900,256,576,-71
0,-320,15632,511,565,-106
0,-420,15684,511,572,-109
0,-648,15816,511,597,-62
0,-312,15928,256,566,-72
0,-356,15632,511,588,-76
0,-368,15908,256,573,-81
0,-308,15900,256,565,-75
0,-352,15672,511,572,-94
0,-380,15660,256,584,-81
0,-344,15684,256,556,-63
0,-412,15884,256,580,-93
0,-400,15664,511,567,-110
0,-360,15908,256,580,-101
0,-340,15724,511,583,-98
0,-376,15696,511,581,-60
0,-328,15668,511,573,-74
0,-392,15656,511,577,-88
0,-356,15876,256,565,-83
0,-388,15656,511,561,-81
0,-600,15844,511,576,-91
0,-384,15624,511,585,-94
0,-436,15696,511,574,-66
0,-348,15904,256,590,-58
0,-380,15680,511,572,-73
0,-348,15640,511,578,-77
0,-368,15980,256,595,-68
0,-388,15700,511,574,-113
0,-384,15648,511,567,-84
0,-340,15928,256,561,-115
0,-372,15644,511,535,-99
0,-392,15624,511,593,-60
0,-376,15916,256,557,-85
0,-360,15660,511,577,-69
0,-320,15916,256,554,-96
0,-368,15884,256,583,-77
0,-352,15616,511,566,-84
0,-304,15972,256,574,-77
0,-664,15868,511,548,-75
0,-324,15904,256,575,-83
0,-376,15616,511,590,-32
0,-332,15628,511,560,-79
0,-384,15728,511,556,-100
0,-412,15916,256,572,-66
0,-328,15668,511,574,-83
0,-372,15688,511,580,-88
0,-348,15640,511,555,-106
0,-388,15936,256,562,-88
0,-308,15652,511,577,-94
0,-344,15880,256,575,-83
0,-368,15920,256,585,-75
0,-400,15656,511,557,-76
0,-608,15860,511,577,-100
0,-392,15920,256,544,-87
0,-392,15972,256,548,-71
0,-364,15716,511,572,-114
0,-376,15928,256,584,-98
0,-364,15668,511,561,-38
0,-408,15624,511,583,-111
0,-352,15728,511,578,-90
255,-380,15648,511,555,-84
0,-372,15656,511,581,-98
0,-384,15944,256,586,-68
0,-348,15972,256,565,-122
0,-404,15880,256,575,-88
0,-376,15624,511,547,-33
0,-364,15660,511,577,-72
0,-328,15616,511,557,-61
0,-328,15668,511,541,-95
0,-328,15944,256,584,-82
0,-384,15684,511,592,-80
0,-332,15636,511,590,-86
0,-372,15900,256,586,-85
0,-320,15664,511,557,-71
0,-628,15860,511,569,-97
0,-660,15856,511,584,-98
0,-392,15932,256,571,-122
0,-348,15920,256,568,-68
0,-292,15900,256,554,-70
0,-344,15912,256,594,-126
0,-364,15648,511,551,-105
0,-340,15696,511,597,-73
0,-336,15660,511,574,-108
0,-348,15704,511,561,-106
0,-368,15620,511,585,-104
0,-356,15928,256,558,-57
0,-340,15948,256,558,-54
0,-344,15680,511,603,-100
0,-416,15912,256,588,-86
0,-344,15620,511,569,-93
0,-592,15856,511,563,-48
0,-344,15644,511,569,-77
0,-372,15660,511,576,-104
0,-372,15928,256,558,-113
0,-660,15848,511,575,-110
0,-400,15664,511,595,-64
0,-336,15668,511,580,-97
0,-400,15920,256,563,-111
0,-388,15960,256,589,-70
0,-360,15676,511,584,-80
0,-396,15684,511,559,-100
0,-304,15916,256,581,-112
0,-352,15668,511,603,-79
0,-332,15672,256,555,-104
0,-368,15720,511,571,-70
0,-320,15668,511,582,-69
0,-360,15668,511,560,-85
0,-364,15972,256,551,-92
0,-408,15708,511,574,-94
0,-356,15652,511,589,-72
0,-324,15640,511,598,-102
0,-384,15692,511,540,-66
0,-392,15676,511,582,-90
0,-420,15636,511,584,-71
0,-368,15904,256,544,-114
0,-472,15924,256,582,-97
0,-312,15892,256,573,-67
0,-356,15936,256,590,-58
0,-408,15968,256,565,-90
0,-292,15616,511,567,-62
0,-352,15688,511,564,-81
0,-420,15912,256,581,-77
0,-328,15648,511,591,-77
0,-348,15680,511,596,-91
0,-332,15660,511,592,-44
0,-436,15972,256,576,-78
0,-304,15944,256,544,-95
0,-372,15644,511,599,-70
0,-400,15896,256,554,-75
0,-320,15680,511,578,-76
0,-372,15652,511,565,-82
0,-332,15624,511,563,-106
0,-396,15728,511,583,-104
255,-360,15912,256,579,-66
0,-344,15908,256,584,-102
0,-424,15632,511,580,-80
0,-392,15884,256,607,-75
0,-340,15660,511,599,-75
0,-656,15868,511,540,-55
0,-360,15964,256,574,-109
0,-396,15928,256,574,-91
0,-332,15932,256,576,-93
0,-364,15896,256,577,-77
0,-368,15636,511,599,-93
0,-328,15660,511,570,-58
0,-392,15652,511,567,-84
0,-376,15956,256,592,-104
0,-448,15648,511,551,-118
0,-288,15908,256,557,-94
0,-380,15680,511,581,-83
0,-408,15692,511,543,-84
0,-340,15924,256,568,-103
0,-504,15952,256,575,-58
0,-372,15668,511,548,-83
0,-356,15924,256,569,-78
0,-364,15660,511,577,-65
0,-372,15904,256,564,-61
0,-380,15664,511,576,-105
0,-328,15652,511,598,-75
0,-584,15868,511,572,-71
0,-632,15864,511,568,-80
0,-336,15640,511,563,-94
0,-364,15632,511,573,-84
0,-352,15648,511,589,-74
0,-340,15940,256,566,-84
0,-604,15856,511,564,-87
0,-336,15656,511,563,-66
0,-360,15664,511,564,-63
0,-668,16116,256,539,-88
0,-352,15692,511,594,-68
0,-440,15932,256,559,-81
0,-360,15732,511,592,-79
0,-328,15716,511,600,-77
0,-340,15900,256,574,-73
0,-344,15908,256,547,-89
0,-400,15996,256,586,-108
0,-364,15660,511,550,-74
0,-348,15920,256,594,-103
0,-664,15836,511,559,-90
0,-376,15912,256,549,-35
0,-464,15876,256,556,-104
0,-368,15672,511,587,-83
0,-332,15904,256,562,-94
0,-312,15992,256,574,-69
0,-412,15696,511,590,-78
0,-336,15940,256,581,-96
0,-332,15664,511,573,-58
0,-372,15648,511,550,-84
0,-588,15868,511,579,-82
0,-388,15928,256,561,-87
0,-432,15736,511,591,-82
0,-376,15684,511,574,-110
0,-364,15664,511,567,-71
0,-652,15844,511,577,-124
0,-392,15900,256,552,-106
0,-516,15852,256,575,-71
0,-340,15648,511,580,-89
0,-656,15868,511,592,-93
0,-376,15644,511,561,-91
0,-416,15676,511,571,-93
0,-408,15688,511,537,-92
0,-592,16096,256,584,-89
0,-348,15644,511,551,-66
0,-392,15912,256,561,-79
0,-348,15696,511,567,-105
0,-376,15620,511,542,-113
0,-360,15668,511,570,-75
0,-408,15664,511,565,-79
0,-328,15892,256,560,-75
0,-408,15932,256,600,-79
0,-372,15656,511,597,-68
0,-408,15676,511,549,-100
0,-340,15888,256,578,-94
0,-368,15688,511,549,-92
0,-372,15676,511,574,-68
0,-352,15928,256,575,-98
0,-356,15644,511,565,-99
0,-328,15684,511,537,-78
0,-376,15700,511,583,-70
0,-348,15944,256,559,-92
0,-384,15636,511,562,-86
0,-364,15620,511,582,-50
0,-348,15704,511,559,-95
0,-396,15980,256,563,-82
0,-376,15904,256,563,-71
0,-392,15892,256,568,-84
0,-380,15984,256,559,-69
0,-432,15736,511,569,-44
0,-320,15872,256,569,-91
0,-624,15864,511,574,-73
0,-364,15664,511,583,-80
0,-392,15912,256,555,-70
0,-396,15916,256,576,-91
0,-380,15720,511,607,-75
255,-364,15640,511,548,-77
0,-356,15636,511,563,-81
0,-680,15860,511,561,-97
0,-336,15936,256,595,-87
0,-348,15904,256,570,-86
0,-336,15908,256,572,-73
0,-408,15884,256,569,-67
0,-648,15844,511,591,-82
0,-396,15640,511,541,-90
0,-400,15728,511,571,-52
0,-380,15740,511,608,-90
0,-376,15920,256,590,-91
0,-612,16124,256,578,-89
0,-376,15636,511,565,-69
0,-588,15868,511,579,-80
0,-408,15656,511,572,-107
0,-396,15928,256,592,-52
0,-380,15656,511,562,-105
0,-372,15700,511,563,-61
0,-376,15664,511,585,-83
0,-448,15692,511,575,-83
0,-356,15676,511,530,-117
0,-416,15656,511,590,-67
0,-360,15984,256,570,-94
0,-296,15632,511,547,-96
0,-336,15684,511,569,-76
0,-416,15684,511,568,-70
0,-408,15644,511,578,-87
0,-408,15924,256,565,-86
0,-576,15816,511,563,-61
0,-388,15616,511,561,-107
0,-388,15664,511,574,-109
0,-344,15920,256,577,-68
0,-388,15616,511,558,-80
0,-344,15712,511,570,-84
0,-348,15680,511,568,-79
0,-372,15708,511,602,-85
0,-344,15644,511,607,-121
0,-348,15656,511,554,-73
0,-360,15640,511,540,-77
0,-400,15916,256,562,-84
0,-604,16100,256,586,-89
0,-368,15660,511,561,-90
0,-380,15756,511,577,-45
0,-308,15640,511,584,-91
0,-348,15652,511,542,-83
0,-332,15876,256,561,-99
0,-404,15648,511,577,-95
0,-320,15704,511,558,-76
0,-348,15912,256,589,-100
0,-332,15872,256,579,-68
0,-396,15892,256,544,-82
0,-636,15828,511,567,-81
0,-336,15696,511,558,-105
0,-324,15708,511,571,-66
0,-356,15696,511,548,-85
0,-360,15648,511,548,-92
0,-340,15912,256,577,-107
0,-360,15664,511,569,-89
0,-396,15944,256,577,-71
0,-552,15868,511,598,-51
0,-376,15936,256,560,-71
0,-384,15644,511,559,-88
0,-372,15936,256,594,-97
0,-336,15640,511,570,-101
0,-408,15684,511,554,-79
0,-332,15928,256,566,-74
0,-396,15956,256,548,-74
0,-392,15896,256,561,-85
0,-400,15964,256,575,-56
0,-328,15920,256,552,-79
0,-672,16080,256,553,-102
0,-356,15688,511,610,-60
0,-352,15652,511,546,-72
0,-352,15668,511,570,-119
0,-284,15696,511,572,-58
0,-344,15624,511,581,-44
0,-444,15628,511,574,-79
0,-368,15672,511,560,-89
0,-336,15696,511,546,-83
0,-368,15904,256,580,-61
0,-392,15940,256,569,-65
0,-656,15804,511,567,-100
0,-348,15616,511,559,-52
0,-368,15936,256,574,-49
0,-356,15704,511,592,-71
0,-348,15688,511,550,-123
0,-320,15644,511,568,-94
0,-324,15660,511,558,-49
0,-568,15848,511,573,-132
0,-300,15716,511,578,-109
0,-344,15624,511,584,-83
0,-396,15876,256,577,-68
0,-352,15656,511,543,-110
0,-328,15900,256,557,-103
0,-340,15956,256,563,-87
0,-348,15656,511,574,-110
0,-364,15700,511,556,-77
0,-560,15860,511,559,-91
0,-352,15616,511,571,-67
0,-316,15908,256,589,-86
0,-384,15936,256,547,-122
0,-400,15928,256,557,-75
0,-384,15668,256,592,-95
0,-320,15680,511,566,-84
0,-376,15900,256,546,-67
0,-356,15936,256,575,-54
0,-424,15896,256,578,-79
0,-380,15980,256,576,-82
0,-364,15872,256,577,-96
0,-396,15692,511,584,-96
0,-404,15952,256,567,-70
0,-420,15640,511,533,-80
0,-400,15896,256,589,-108
0,-348,15636,511,580,-98
0,-380,15672,511,572,-110
0,-432,15876,256,588,-109
0,-344,15952,256,567,-60
0,-380,15648,511,576,-90
0,-320,15672,511,562,-87
0,-348,15648,511,588,-98
0,-416,15908,256,572,-83
0,-360,15904,256,577,-89
0,-364,15952,256,579,-71
0,-352,15672,511,563,-69
0,-360,15676,511,568,-57
0,-364,15896,256,608,-88
0,-368,15876,256,561,-71
0,-328,15624,511,573,-96
0,-408,15624,511,574,-75
0,-332,15688,511,582,-78
0,-400,15716,511,570,-68
0,-348,15908,256,572,-57
0,-420,15648,511,579,-84
0,-592,15868,511,566,-52
0,-400,15648,256,554,-96
0,-660,16124,256,590,-80
0,-624,16124,256,568,-78
0,-388,15704,511,544,-99
0,-332,15636,511,581,-107
0,-608,16120,256,586,-71
0,-632,16108,256,587,-114
0,-408,15904,256,565,-109
0,-580,16120,256,543,-83
0,-332,15692,511,574,-96
0,-352,15648,511,578,-89
0,-324,15668,511,573,-79
0,-340,15880,256,553,-95
0,-672,16108,256,588,-106
0,-296,15936,256,570,-93
0,-348,15672,511,574,-79
0,-368,15628,511,566,-75
0,-368,15684,511,541,-54
0,-340,15672,511,575,-84
0,-332,15628,511,553,-86
0,-328,15664,511,573,-102
0,-340,15736,511,570,-75
0,-352,15636,511,568,-64
0,-352,15628,511,557,-76
0,-360,15652,511,564,-92
0,-316,15692,511,582,-81
0,-356,15924,256,574,-77
0,-608,15840,511,565,-70
0,-356,15900,256,561,-74
0,-372,15660,511,561,-94
0,-400,15648,511,564,-67
0,-340,15648,511,572,-62
0,-400,15664,511,571,-85
0,-348,15704,511,567,-78
0,-432,15680,511,578,-87
0,-372,15896,256,587,-81
0,-324,15620,511,572,-107
0,-396,15696,511,566,-81
0,-404,15900,256,586,-84
0,-332,15676,511,563,-91
0,-388,15876,256,588,-64
0,-332,15640,511,583,-75
0,-312,15892,256,574,-91
0,-352,15676,511,596,-99
0,-360,15924,256,565,-73
0,-344,15636,511,577,-68
0,-436,15676,511,599,-84
0,-388,15872,256,553,-81
0,-628,16120,256,582,-63
0,-412,15904,256,607,-62
0,-424,15656,511,562,-95
0,-356,15632,511,557,-68
0,-348,15748,511,571,-60
0,-368,15656,511,558,-67
0,-348,15668,511,575,-39
0,-392,15912,256,566,-98
0,-404,15704,511,568,-104
0,-376,15724,511,570,-70
0,-344,15652,511,579,-97
0,-412,15904,256,573,-103
0,-412,15680,511,560,-71
0,-600,16124,256,573,-87
0,-412,15648,511,591,-95
0,-368,15648,511,555,-61
0,-340,15688,511,604,-67
0,-388,15924,256,596,-98
0,-432,15660,511,590,-89
0,-388,15660,511,562,-66
0,-380,15948,256,575,-54
0,-400,15672,511,563,-83
0,-392,15660,511,567,-81
0,-328,15652,256,592,-85
0,-596,16124,256,584,-73
0,-376,15680,511,575,-78
0,-416,15664,511,549,-67
0,-360,15904,256,573,-75
0,-428,15660,511,580,-91
0,-364,15648,511,544,-60
0,-336,15672,511,600,-51
0,-340,15668,511,547,-120
0,-328,15656,511,595,-69
0,-376,15668,511,582,-87
0,-376,15664,511,590,-45
0,-412,15648,511,587,-68
0,-404,15908,256,580,-77
0,-388,15700,511,556,-93
0,-360,15892,256,555,-85
0,-372,15944,256,597,-71
0,-368,15948,256,560,-91
0,-348,15892,256,543,-89
0,-364,15696,511,569,-74
0,-332,15624,511,546,-69
0,-308,15900,256,598,-75
0,-388,15928,256,559,-116
0,-348,15880,256,560,-77
0,-344,15900,256,581,-88
0,-356,15688,511,578,-97
0,-404,15680,511,588,-94
0,-360,15672,511,591,-77
0,-392,15932,256,555,-90
0,-376,15672,511,588,-54
0,-340,15888,256,551,-88
0,-392,15920,256,557,-80
0,-404,15712,511,593,-71
0,-404,15900,256,546,-113
0,-332,15660,511,600,-104
0,-392,15888,256,589,-70
0,-596,15868,511,562,-68
0,-392,15936,256,559,-78
0,-292,15676,511,559,-96
0,-372,15660,511,585,-61
0,-384,15696,511,601,-67
0,-696,15860,511,586,-74
0,-384,15920,256,563,-86
0,-356,15900,256,585,-59
0,-392,15904,256,578,-98
0,-332,15680,511,541,-72
0,-316,15872,256,590,-70
0,-368,15624,511,571,-95
0,-296,15664,511,588,-95
0,-656,16124,256,601,-46
0,-364,15880,256,593,-111
0,-368,15688,256,565,-55
0,-360,15688,511,586,-96
0,-332,15936,256,600,-81
0,-428,15948,256,584,-101
0,-332,15928,256,568,-96
0,-388,15652,511,567,-67
0,-388,15688,511,586,-83
0,-388,15736,511,576,-88
0,-360,15652,511,580,-102
0,-368,15692,511,576,-86
0,-368,15668,511,544,-86
0,-364,15620,511,574,-101
0,-348,15680,511,568,-72
0,-604,15860,511,558,-103
0,-320,15640,511,562,-99
0,-300,15904,256,557,-100
0,-368,15692,511,560,-78
0,-336,15876,256,578,-104
0,-420,15924,256,592,-83
0,-328,15996,256,580,-41
0,-396,15652,511,564,-110
0,-344,15664,511,542,-92
0,-388,15620,511,586,-72
0,-360,15684,511,576,-69
0,-332,15644,256,548,-90
0,-380,15912,256,560,-82
0,-392,15684,511,566,-87
0,-376,15668,511,583,-88
0,-376,15916,256,568,-84
0,-344,15904,256,579,-83
0,-360,15624,511,582,-96
0,-316,15672,511,592,-95
0,-304,15700,511,585,-90
0,-668,15836,511,581,-37
0,-420,15952,256,557,-106
0,-712,16112,256,578,-118
0,-340,15880,256,576,-58
0,-372,15656,511,565,-58
0,-392,15968,256,539,-86
0,-360,15704,511,555,-96
0,-328,15664,511,553,-85
0,-328,15728,511,554,-93
0,-360,15696,511,569,-100
0,-376,15968,256,572,-89
0,-360,15668,511,551,-96
0,-312,15684,511,578,-74
0,-384,15628,511,567,-63
0,-336,15652,511,571,-105
0,-296,15624,511,580,-59
0,-368,15632,511,571,-71
0,-368,15616,511,583,-85
0,-356,15664,511,571,-81
0,-356,15952,256,544,-83
0,-316,15712,511,589,-49
0,-360,15624,511,601,-82
0,-352,15944,256,553,-67
0,-652,15860,511,562,-105
0,-356,15892,256,580,-75
0,-364,15940,256,573,-76
0,-356,15692,511,560,-80
0,-360,15932,256,551,-65
0,-380,15876,256,549,-84
0,-636,16120,256,600,-55
0,-416,15936,256,586,-120
0,-368,15712,511,576,-50
0,-324,15900,256,580,-103
0,-372,15680,511,605,-70
0,-320,15884,256,565,-79
0,-260,15616,256,565,-85
0,-392,15700,511,588,-92
0,-376,15680,511,599,-91
0,-368,15640,511,565,-84
0,-352,15644,511,553,-64
0,-388,15668,511,562,-94
0,-352,15960,256,566,-71
0,-688,15864,511,571,-75
0,-380,15716,511,562,-72
0,-360,15628,511,578,-84
0,-324,15648,511,566,-90
256,-504,15712,511,590,-79
0,-388,15624,511,551,-99
0,-356,15644,511,545,-81
0,-684,15860,511,569,-68
0,-332,15648,511,568,-81
0,-660,15852,511,570,-78
0,-376,15912,256,595,-91
0,-352,15900,256,577,-112
0,-348,15664,511,571,-98
0,-340,15704,511,565,-70
0,-388,15880,256,567,-84
0,-632,16104,256,571,-58
0,-380,15628,511,586,-90
0,-372,15656,511,546,-68
0,-548,16120,256,562,-82
0,-332,15936,256,592,-71
0,-340,15704,511,573,-73
0,-376,15892,256,557,-101
0,-376,15628,511,573,-48
0,-404,15676,511,568,-58
0,-340,15672,511,561,-94
0,-324,15692,511,578,-99
0,-328,15720,511,593,-48
0,-376,15688,511,568,-82
0,-324,15932,511,600,-98
0,-368,15904,256,574,-55
0,-620,15860,511,589,-76
0,-372,15876,256,581,-82
0,-440,15960,256,591,-83
0,-344,15712,511,576,-72
0,-660,15856,511,566,-78
0,-368,15644,511,550,-76
0,-424,15892,256,588,-54
0,-376,15648,511,589,-60
0,-412,15676,511,565,-65
0,-372,15960,256,575,-89
0,-364,15672,511,572,-72
0,-396,15684,511,603,-86
0,-312,15652,511,578,-96
0,-320,15684,511,577,-61
0,-356,15660,511,573,-74
0,-440,15900,256,546,-84
0,-368,15928,256,618,-96
0,-392,15888,256,596,-77
0,-388,15632,511,579,-100
0,-332,15624,511,580,-63
0,-416,15640,511,584,-112
0,-376,15616,511,574,-66
0,-332,15660,511,579,-88
0,-328,15616,511,604,-88
0,-460,15888,256,589,-86
0,-368,15636,511,566,-94
0,-380,15660,511,575,-39
0,-344,15908,256,568,-65
0,-372,15668,511,571,-77
0,-384,15620,511,573,-65
0,-372,15680,511,591,-90
0,-384,15976,256,566,-59
0,-376,15932,256,556,-65
0,-352,15952,256,580,-86
0,-384,16000,256,583,-45
0,-340,15660,511,606,-76
0,-320,15636,511,547,-100
0,-352,15668,511,570,-75
0,-352,15628,511,600,-66
0,-352,15920,256,572,-87
0,-352,15624,511,569,-80
0,-608,15840,511,527,-98
0,-376,15652,511,599,-100
0,-428,15652,511,575,-72
0,-400,15920,256,572,-92
0,-360,15628,511,588,-93
0,-368,15896,256,586,-96
0,-360,15920,256,582,-89
0,-324,15928,256,599,-82
0,-380,15956,256,577,-59
0,-412,15688,511,558,-68
0,-588,15856,511,576,-61
0,-440,15640,511,554,-117
0,-672,16096,256,571,-94
0,-356,15620,511,588,-82
0,-572,16120,256,564,-63
0,-304,15724,511,550,-95
0,-396,15936,256,584,-93
0,-332,15932,256,576,-90
0,-396,15672,511,579,-78
0,-396,15684,511,561,-63
0,-364,15948,256,577,-84
0,-364,15968,256,572,-84
0,-384,15676,511,547,-76
0,-608,16100,256,568,-77
0,-400,15648,511,551,-79
0,-380,15888,256,561,-66
0,-296,15872,256,579,-100
0,-368,15644,511,571,-88
0,-352,15904,256,564,-63
0,-336,15912,256,579,-70
0,-372,15652,511,553,-87
0,-656,16120,256,587,-94
0,-420,15872,256,596,-77
0,-356,15948,256,560,-113
0,-352,15660,511,558,-76
0,-396,15884,256,530,-89
0,-408,15696,511,577,-92
0,-360,15660,511,596,-111
0,-404,15660,511,549,-50
0,-360,15880,256,579,-84
0,-344,15656,511,597,-104
0,-352,15680,511,575,-85
0,-408,15636,511,566,-99
0,-320,15708,511,576,-89
0,-416,15628,511,565,-76
0,-420,15936,256,578,-69
0,-332,15660,511,555,-78
0,-352,15928,256,555,-76
0,-596,16116,256,562,-82
0,-392,15932,256,585,-86
0,-328,15620,511,600,-68
0,-564,16088,256,571,-92
0,-292,15688,511,554,-89
0,-372,15932,256,558,-78
0,-316,15704,511,570,-79
0,-396,15872,256,553,-74
0,-388,15680,511,597,-68
0,-392,15936,256,592,-81
0,-392,15700,511,578,-65
0,-348,15640,511,578,-98
0,-384,15684,511,587,-76
0,-340,15908,256,562,-77
0,-372,15664,511,557,-95
0,-304,15904,256,551,-76
0,-340,15892,256,581,-100
0,-644,16124,256,556,-96
0,-320,15876,256,589,-87
0,-380,15700,511,568,-85
0,-380,15676,511,574,-71
0,-384,15660,511,564,-79
0,-600,16120,256,570,-90
0,-352,15712,511,583,-88
0,-336,15648,511,562,-69
0,-432,15924,256,528,-69
0,-340,15712,511,582,-104
0,-596,15820,511,586,-92
0,-356,15644,511,566,-105
0,-384,15880,256,554,-88
0,-344,15664,511,562,-62
0,-432,15620,256,565,-73
0,-404,15664,511,575,-94
0,-428,15928,256,610,-92
0,-392,15924,256,560,-98
0,-392,15660,511,577,-66
0,-344,15652,511,587,-82
0,-364,15672,511,564,-67
0,-376,15952,256,577,-75
0,-364,15676,511,587,-65
0,-352,15656,511,569,-78
0,-348,15932,256,574,-99
0,-564,15852,511,594,-81
0,-340,15656,511,577,-74
0,-352,15900,256,580,-68
0,-548,15848,511,563,-111
0,-384,15876,256,570,-60
0,-564,16124,256,571,-98
0,-364,15616,511,609,-82
0,-304,15632,511,567,-84
0,-380,15912,256,566,-108
0,-392,15976,256,597,-83
0,-368,15896,256,590,-87
0,-380,15952,256,563,-80
0,-356,15656,511,573,-119
0,-604,16124,256,587,-71
0,-384,15940,256,570,-51
0,-348,15656,511,568,-83
0,-304,15900,256,565,-96
0,-364,15632,511,557,-109
0,-344,15632,511,590,-57
0,-352,15668,256,577,-93
0,-612,16116,256,535,-98
0,-368,15660,511,574,-66
0,-348,15676,511,583,-109
0,-368,15900,256,565,-84
0,-404,15708,511,553,-101
0,-368,15944,256,591,-97
0,-360,15668,511,578,-55
0,-312,15664,511,562,-83
0,-408,15640,511,609,-90
0,-344,15648,511,618,-102
0,-312,15644,511,575,-69
0,-364,15912,256,563,-110
0,-328,15632,511,578,-85
0,-344,15720,511,571,-116
0,-632,15868,511,577,-86
0,-388,15940,256,567,-82
0,-388,15900,256,563,-103
0,-336,15984,256,573,-78
0,-388,15684,511,593,-66
0,-344,15908,256,590,-81
0,-384,15900,256,593,-100
0,-408,15696,511,555,-71
0,-360,15664,511,565,-78
0,-388,15616,511,582,-63
0,-380,15628,511,560,-103
0,-372,15652,511,600,-72
0,-608,15860,511,613,-92
0,-620,16112,256,555,-112
0,-384,15692,511,601,-70
0,-332,15640,256,543,-78
0,-604,15868,511,564,-81
0,-332,15640,511,578,-55
0,-380,15928,256,596,-76
0,-312,15952,256,569,-89
0,-408,15880,256,592,-93
0,-276,15700,511,585,-62
0,-364,15684,511,546,-80
0,-336,15692,511,543,-104
0,-580,15856,511,574,-65
0,-388,15880,256,581,-98
0,-400,15940,256,574,-79
0,-364,15668,511,591,-74
0,-308,15660,511,562,-83
0,-344,15932,256,557,-94
0,-368,15976,256,598,-94
0,-380,15688,511,552,-62
0,-380,15908,256,554,-100
0,-436,15620,511,580,-76
0,-408,15632,511,592,-84
0,-312,15700,511,563,-120
0,-412,15928,256,561,-84
0,-360,15900,511,544,-80
0,-384,15628,511,584,-72
0,-344,15652,511,561,-70
0,-352,15620,511,584,-80
0,-348,15660,511,591,-82
0,-576,16120,256,533,-105
0,-380,15664,511,583,-122
0,-404,15652,256,586,-95
0,-584,16092,256,576,-85
0,-380,15696,511,563,-84
0,-360,15624,511,538,-116
0,-644,16120,256,573,-82
0,-340,15924,256,577,-86
0,-348,15916,256,579,-96
0,-360,15912,256,554,-89
0,-376,15920,256,545,-79
0,-344,15700,511,544,-67
0,-380,15936,256,606,-87
0,-396,15668,511,601,-81
0,-336,15916,256,572,-85
0,-380,15644,511,570,-71
0,-392,15652,511,576,-74
0,-596,15848,511,576,-60
0,-380,15628,511,560,-98
0,-400,15932,256,563,-76
0,-388,15656,511,568,-90
0,-392,15680,511,569,-104
0,-392,15668,511,563,-89
0,-392,15624,511,583,-56
0,-336,15920,256,617,-94
0,-412,15660,511,578,-66
0,-312,15904,256,568,-71
0,-612,15864,511,574,-98
0,-328,15640,511,577,-91
0,-336,15652,511,562,-87
0,-596,16116,256,582,-65
0,-348,15720,511,581,-105
0,-408,15924,256,551,-111
0,-372,15632,511,574,-93
0,-368,15684,511,559,-100
0,-364,15684,511,600,-82
0,-340,15928,256,577,-77
0,-376,15648,511,572,-73
0,-392,15620,511,557,-89
0,-380,15904,256,573,-79
0,-372,15916,256,558,-88
0,-360,15676,511,594,-73
0,-336,15672,511,555,-87
0,-344,15676,511,540,-76
0,-356,15696,511,574,-71
0,-356,15672,511,582,-72
0,-352,15892,256,585,-103
0,-332,15928,256,584,-87
255,-332,15932,256,570,-64
0,-336,15932,256,596,-94
0,-364,15904,256,565,-51
0,-344,15940,256,563,-101
0,-332,15880,256,593,-79
0,-404,15944,256,597,-99
0,-300,15872,256,597,-78
0,-380,15632,511,547,-79
0,-348,15960,256,602,-102
0,-428,15616,511,544,-89
0,-424,15628,511,570,-92
0,-288,15688,511,577,-75
0,-344,15688,511,577,-77
0,-364,15708,511,556,-58
0,-328,15920,256,544,-94
0,-396,15648,511,609,-77
0,-392,15644,511,572,-67
0,-560,16104,256,553,-87
0,-360,15688,511,587,-87
0,-460,15916,256,540,-58
0,-360,15676,511,547,-52
0,-316,15628,511,593,-78
0,-388,15924,256,541,-73
0,-324,15904,256,569,-99
0,-360,15656,511,597,-72
0,-316,15956,256,578,-62
0,-428,15664,511,555,-107
0,-360,15908,256,556,-75
0,-608,15816,511,602,-86
0,-356,15664,511,586,-98
0,-356,15876,256,548,-75
0,-360,15648,511,576,-72
0,-352,15908,256,576,-76
0,-636,15852,511,570,-89
0,-408,15636,511,565,-95
0,-424,15708,511,612,-85
0,-372,15688,511,575,-89
0,-348,15660,256,557,-77
255,-368,15896,256,565,-109
0,-352,15644,511,603,-69
0,-428,15896,256,582,-82
0,-424,15916,256,576,-92
0,-384,15636,511,546,-82
0,-380,15652,511,595,-80
0,-380,15884,256,585,-69
0,-356,15692,511,554,-112
0,-340,15692,511,571,-71
0,-324,15884,256,557,-49
0,-384,15676,511,571,-55
0,-356,15888,256,555,-74
0,-352,15616,511,577,-76
0,-396,15644,511,554,-86
0,-392,15896,256,557,-80
0,-408,15680,511,582,-59
0,-312,15640,511,543,-90
0,-384,15676,511,549,-57
0,-384,15644,511,579,-81
0,-364,15636,511,576,-91
0,-340,15880,256,571,-66
0,-336,15716,256,589,-84
0,-408,15720,511,584,-84
0,-356,15664,511,574,-103
0,-400,15892,256,589,-56
0,-356,15644,511,566,-117
0,-360,15708,511,583,-84
0,-356,15636,511,594,-69
0,-396,15684,511,549,-82
0,-632,16124,256,579,-70
0,-360,15636,511,577,-92
0,-436,15924,256,551,-119
0,-360,15912,256,612,-73
0,-364,15712,511,583,-75
0,-368,15636,511,567,-73
0,-392,15892,256,567,-95
0,-364,15644,511,579,-76
0,-340,15972,256,555,-75
0,-328,15940,256,559,-70
0,-344,15644,511,591,-64
0,-672,16124,256,561,-120
255,-332,15944,256,553,-98
0,-344,15912,256,575,-130
0,-348,15648,511,567,-64
0,-400,15924,256,563,-90
255,-352,15936,256,578,-53
0,-572,16116,256,563,-75
0,-396,15660,511,584,-61
0,-376,15932,256,591,-58
0,-592,15868,511,576,-101
0,-368,15896,256,565,-83
0,-384,15656,511,595,-90
0,-372,15688,511,588,-98
0,-396,15948,256,571,-111
0,-396,15956,256,554,-89
0,-340,15908,256,569,-73
0,-368,15908,256,583,-90
0,-352,15664,511,547,-72
0,-372,15628,511,580,-60
0,-348,15632,511,579,-90
0,-412,15684,511,597,-87
0,-356,15912,256,582,-90
0,-380,15964,256,553,-85
0,-364,15880,256,560,-58
0,-320,15660,511,581,-65
0,-412,15884,256,555,-121
0,-332,15636,511,574,-75
0,-392,15936,256,576,-104
0,-612,15848,511,571,-68
0,-344,15644,511,560,-61
0,-352,15644,511,566,-79
0,-340,15928,256,570,-87
0,-360,15620,511,565,-89
0,-340,15668,511,574,-72
0,-392,15680,511,567,-64
0,-356,15616,511,568,-72
0,-344,15924,256,531,-84
0,-408,15700,511,566,-94
0,-360,15880,256,580,-97
0,-396,15916,256,579,-105
0,-388,15916,256,613,-89
0,-344,15960,256,574,-81
0,-380,15920,256,549,-100
0,-348,15960,256,612,-83
0,-384,15892,256,573,-116
0,-380,15648,511,586,-72
0,-340,15648,511,606,-84
0,-640,16120,256,574,-101
0,-588,16124,256,563,-51
0,-424,15664,511,574,-78
0,-380,15668,511,585,-67
0,-560,16092,256,555,-131
0,-336,15668,256,560,-89
0,-348,15676,511,566,-97
0,-300,15668,511,552,-66
0,-364,15912,256,582,-94
0,-328,15888,256,580,-62
0,-388,15648,256,599,-70
0,-352,15976,256,565,-89
0,-376,15684,511,557,-86
0,-612,16084,256,591,-102
0,-360,15720,511,590,-64
0,-368,15936,256,560,-111
0,-348,15624,511,593,-65
0,-344,15940,256,576,-71
0,-356,15892,256,570,-98
0,-384,15624,511,599,-96
0,-352,15664,511,607,-47
0,-356,15648,511,587,-111
0,-364,15904,256,580,-76
0,-328,15884,256,569,-51
0,-380,15892,256,600,-81
0,-292,15672,511,577,-59
0,-388,15672,511,584,-103
0,-624,16124,256,573,-84
0,-632,15856,511,588,-71
0,-412,15628,511,570,-84
0,-296,15712,511,575,-87
0,-620,15868,511,592,-91
0,-376,15932,256,576,-72
0,-332,15668,511,556,-66
0,-332,15704,511,565,-84
0,-352,15664,511,570,-85
0,-336,15732,511,568,-65
0,-356,15940,256,571,-69
0,-372,15888,256,576,-73
0,-344,15676,511,570,-81
0,-360,15936,256,553,-87
0,-436,15892,256,584,-66
0,-376,15628,511,590,-70
0,-368,15632,511,577,-90
0,-400,15668,511,574,-60
0,-620,15840,511,562,-54
0,-396,15616,511,559,-77
0,-624,15868,511,579,-68
0,-384,15920,256,590,-76
0,-360,15656,511,591,-114
0,-640,16100,256,558,-62
0,-364,15936,256,567,-110
0,-624,16064,256,569,-90
0,-384,15884,256,581,-106
0,-348,15660,511,596,-92
0,-604,16104,256,559,-68
0,-336,15620,511,572,-96
0,-396,15664,511,579,-82
0,-672,15836,511,564,-76
0,-660,15860,511,562,-99
0,-388,15640,511,582,-66
0,-380,15928,256,579,-79
0,-364,15660,511,559,-69
0,-284,15900,256,623,-67
0,-348,15660,511,598,-84
0,-360,15676,511,565,-110
0,-320,15896,256,552,-69
0,-336,15696,511,591,-64
0,-372,15884,256,570,-90
0,-400,15916,256,556,-68
0,-420,15648,511,566,-112
0,-356,15952,256,606,-97
0,-380,15688,511,558,-95
0,-300,15652,511,596,-60
0,-332,15620,511,554,-107
0,-388,15664,511,595,-84
0,-396,15676,511,561,-75
0,-380,15976,256,579,-81
0,-332,15616,511,544,-81
0,-388,15948,256,615,-117
0,-368,15640,511,571,-67
0,-352,15644,511,564,-49
0,-392,15640,511,577,-80
0,-620,15868,511,547,-81
0,-416,15644,511,579,-79
0,-376,15892,256,564,-83
0,-372,15944,256,545,-63
0,-364,15892,256,556,-100
0,-364,15676,511,583,-83
0,-360,15648,511,569,-78
0,-380,15952,256,582,-76
0,-356,15656,511,569,-82
0,-404,15916,256,537,-84
0,-324,15936,256,573,-90
0,-360,15900,256,569,-39
0,-356,15640,511,562,-76
0,-352,15660,511,555,-105
0,-384,15988,256,573,-65
0,-368,15648,511,573,-64
0,-352,15880,256,564,-81
0,-412,15960,256,544,-138
0,-312,15708,511,588,-79
0,-384,15684,511,565,-71
0,-344,15652,511,559,-63
0,-360,15652,511,580,-64
0,-632,15864,511,577,-90
0,-596,16124,256,561,-94
0,-324,15876,256,547,-97
0,-348,15876,256,577,-69
0,-384,15652,511,581,-89
0,-616,16124,256,591,-82
0,-368,15888,256,571,-103
0,-396,15636,511,561,-98
0,-388,15928,256,562,-72
0,-420,15936,256,575,-69
0,-308,15684,511,554,-91
0,-408,15920,256,598,-101
0,-372,15648,511,591,-75
0,-360,15924,256,563,-67
0,-388,15632,511,587,-94
0,-340,15648,511,582,-108
0,-652,16092,256,586,-75
0,-360,15908,256,579,-94
0,-292,15908,256,562,-75
0,-336,15672,511,549,-67
0,-336,15692,511,600,-100
0,-364,15716,511,567,-90
0,-340,15680,511,567,-78
0,-316,15688,511,569,-93
0,-364,15672,511,575,-66
0,-316,15680,511,569,-94
0,-356,15684,511,566,-75
0,-336,15632,511,565,-99
0,-384,15664,511,568,-72
0,-408,15884,256,588,-88
0,-372,15676,511,572,-71
0,-384,15664,511,559,-76
0,-312,15680,511,577,-86
0,-368,15892,256,570,-63
0,-332,15904,256,581,-104
0,-340,15620,511,575,-71
0,-368,15688,511,580,-91
0,-356,15908,256,569,-91
0,-356,15672,511,569,-57
0,-656,15856,511,601,-80
0,-356,15624,511,568,-81
0,-376,15772,511,582,-77
0,-388,15948,256,558,-83
0,-664,15864,511,557,-87
0,-404,15616,511,568,-77
0,-356,15892,256,562,-113
0,-304,15968,256,588,-87
0,-368,15908,256,579,-68
0,-392,15960,256,583,-78
0,-356,15936,256,571,-73
0,-384,15632,511,581,-98
0,-364,15932,256,553,-96
0,-332,15684,511,603,-103
0,-356,15948,256,578,-73
0,-340,15924,256,576,-94
0,-360,15720,511,561,-90
0,-332,15628,511,557,-88
0,-548,15868,256,584,-107
0,-400,15664,511,559,-105
0,-404,15688,511,546,-60
0,-332,15680,511,575,-69
0,-344,15676,511,603,-74
0,-384,15932,256,580,-93
0,-352,15680,511,579,-89
0,-384,15884,256,598,-75
0,-376,15676,511,567,-83
0,-384,15640,511,575,-89
0,-284,15876,256,608,-89
0,-332,15620,511,590,-93
0,-360,15904,256,565,-75
0,-384,15892,256,558,-98
0,-396,15712,511,587,-124
0,-396,15924,256,591,-77
0,-644,15856,511,582,-74
0,-280,15636,511,582,-83
0,-376,15928,256,586,-73
0,-316,15684,511,581,-100
0,-344,15676,511,571,-74
0,-352,15628,511,547,-60
0,-664,15852,511,591,-91
0,-332,15996,256,585,-65
0,-264,15892,256,571,-58
0,-344,15628,511,592,-101
0,-348,15624,511,557,-46
0,-384,15648,511,592,-91
0,-376,15656,511,588,-72
0,-376,15660,511,541,-90
0,-332,15936,256,584,-79
0,-348,15680,511,585,-76
0,-316,15720,511,574,-101
0,-336,15672,511,574,-92
0,-640,16124,256,570,-87
0,-316,15664,511,565,-76
0,-372,15756,511,591,-83
0,-416,15708,511,582,-83
0,-336,15900,256,564,-83
0,-324,15656,511,571,-92
0,-356,15648,511,553,-98
0,-404,15672,511,584,-94
0,-284,15696,511,580,-84
0,-316,15692,511,597,-92
0,-428,15912,256,567,-89
0,-408,15644,511,570,-94
0,-392,15704,511,558,-87
0,-404,15920,256,566,-69
0,-364,15704,511,547,-71
0,-364,15912,256,536,-81
0,-324,15888,256,576,-84
0,-404,15688,511,551,-88
0,-620,15864,511,588,-119
0,-372,15696,511,561,-94
0,-412,15708,511,577,-85
0,-400,15680,511,586,-60
0,-380,15700,511,590,-66
0,-340,15628,511,598,-76
0,-392,15968,256,563,-84
0,-408,15932,256,566,-60
0,-344,15708,511,585,-66
0,-368,15948,256,576,-83
0,-364,15892,256,587,-100
0,-376,15680,511,567,-77
0,-380,15636,511,568,-70
0,-392,15668,511,591,-84
0,-344,15952,256,545,-73
0,-340,15672,511,558,-103
0,-292,15688,256,587,-72
0,-356,15676,511,562,-93
0,-388,15672,511,575,-69
0,-612,16096,256,569,-81
0,-376,15916,256,565,-63
0,-360,15640,511,576,-60
0,-380,15676,511,581,-108
0,-376,15920,256,576,-70
0,-692,16116,256,540,-101
0,-340,15640,511,598,-74
0,-372,15916,256,565,-77
0,-388,15636,511,597,-85
0,-408,15676,511,579,-100
0,-416,15700,511,558,-83
0,-420,15620,511,570,-88
0,-324,15920,256,586,-74
0,-364,15876,256,569,-108
0,-376,15644,511,593,-96
0,-368,15972,256,536,-100
0,-348,15952,256,573,-50
0,-384,15652,511,586,-86
0,-376,15924,256,587,-96
0,-356,15664,511,573,-38
0,-360,15964,256,579,-86
0,-340,15664,511,565,-55
0,-380,15684,511,590,-71
0,-384,15636,511,571,-81
0,-388,15672,511,570,-86
0,-360,15916,256,582,-101
0,-380,15976,256,587,-45
0,-348,15712,511,555,-83
0,-344,15940,256,588,-90
0,-400,15900,256,575,-63
0,-316,15640,511,568,-102
0,-408,15920,256,584,-75
0,-320,15684,511,576,-99
0,-308,15620,511,584,-76
0,-348,15620,511,601,-68
0,-320,15688,511,565,-101
0,-344,15624,511,577,-80
0,-404,15656,511,547,-46
0,-344,15912,256,545,-115
0,-384,15656,511,592,-95
0,-380,15632,511,567,-83
0,-360,15652,511,576,-79
0,-392,15712,511,586,-98
0,-364,15684,511,578,-68
0,-392,15728,511,542,-75
0,-368,15676,511,573,-73
0,-356,15724,511,601,-102
0,-652,16112,256,560,-78
0,-392,15640,511,565,-104
0,-360,15892,256,607,-79
0,-312,15660,511,580,-87
0,-372,15896,256,563,-83
0,-400,15624,511,598,-84
0,-340,15932,256,551,-56
0,-360,15952,256,547,-80
0,-348,15628,511,570,-75
0,-420,15632,511,564,-57
0,-376,15716,511,575,-78
0,-408,15692,511,566,-98
0,-352,15664,511,614,-71
0,-416,15912,256,573,-88
0,-628,16120,256,558,-97
0,-384,15904,256,589,-72
0,-392,15668,511,562,-38
0,-316,15716,511,563,-59
0,-332,15616,511,563,-64
0,-360,15688,511,572,-86
0,-348,15952,256,578,-65
0,-396,15976,256,583,-85
0,-360,15904,256,554,-101
0,-340,15984,256,557,-88
0,-416,15656,511,593,-80
0,-312,15880,256,570,-84
0,-384,15880,256,538,-67
0,-380,15652,511,583,-79
0,-396,15980,256,550,-98
0,-316,15680,511,579,-94
0,-376,15744,511,574,-49
0,-400,15912,256,559,-84
0,-372,15616,511,551,-85
0,-580,16120,256,587,-78
0,-368,15648,511,582,-62
0,-380,15736,511,604,-61
0,-352,15908,256,574,-84
0,-372,15644,256,585,-98
0,-376,15620,511,576,-94
0,-420,15936,256,563,-101
0,-624,16120,256,567,-74
0,-356,15680,511,576,-80
0,-408,15660,511,591,-114
0,-332,15676,511,620,-77
0,-400,15680,511,577,-77
0,-308,15688,511,572,-76
0,-348,15888,256,569,-86
0,-404,15676,511,603,-73
0,-336,15708,511,560,-73
0,-316,15660,511,556,-80
0,-628,15860,511,558,-75
0,-376,15620,511,567,-78
0,-304,15660,511,575,-88
0,-356,15632,511,584,-74
0,-352,15912,256,584,-70
0,-372,15688,511,569,-96
0,-376,15892,256,586,-74
0,-332,15644,511,568,-92
0,-372,15892,256,601,-123
0,-348,15628,256,574,-58
0,-660,15868,511,548,-69
0,-396,15908,256,553,-116
0,-332,15940,256,601,-55
0,-396,15936,256,574,-69
0,-376,15968,256,568,-105
0,-340,15740,511,583,-103
0,-332,15692,511,558,-67
0,-316,15676,511,573,-98
0,-336,15668,511,568,-116
0,-348,15648,511,573,-90
0,-384,15656,511,558,-59
0,-396,15640,511,567,-125
0,-292,15632,511,606,-79
0,-416,15672,511,582,-69
0,-392,15944,256,565,-107
0,-368,15936,256,584,-56
0,-384,15660,511,565,-88
0,-352,15908,256,568,-87
0,-344,15660,511,558,-71
0,-360,15908,256,555,-68
0,-412,15624,511,574,-81
0,-620,15860,256,560,-101
0,-400,15696,511,583,-82
0,-348,15648,511,584,-73
0,-388,15616,511,590,-78
0,-396,15672,511,549,-123
0,-364,15632,511,600,-81
0,-404,15712,511,558,-68
0,-388,15640,511,564,-86
0,-376,15912,256,569,-70
0,-416,15944,256,561,-97
0,-344,15896,256,584,-86
0,-380,15704,511,579,-91
0,-588,16092,256,572,-86
0,-348,15644,511,558,-78
0,-336,15644,511,578,-97
0,-340,15680,511,558,-94
0,-392,15916,256,577,-123
0,-368,15668,511,568,-97
0,-356,15664,511,588,-105
0,-348,15664,511,600,-103
0,-340,15900,256,558,-74
0,-344,15928,256,592,-62
0,-340,15928,256,547,-72
0,-328,15716,511,569,-75
0,-396,15928,256,573,-82
0,-396,15904,256,546,-86
0,-584,15860,511,568,-81
0,-380,15672,511,594,-78
0,-376,15684,511,556,-84
0,-368,15704,511,563,-53
0,-612,15840,511,587,-86
0,-392,15908,256,579,-53
0,-356,15920,256,588,-71
0,-392,15668,511,598,-74
0,-340,15652,511,592,-107
0,-324,15696,511,547,-79
0,-588,15832,511,596,-93
0,-360,15908,256,565,-73
0,-368,15680,511,565,-96
0,-440,15676,511,585,-79
0,-388,15632,511,590,-113
0,-360,15652,511,582,-102
0,-368,15944,256,556,-78
0,-584,15864,511,589,-84
0,-364,15700,511,551,-56
0,-360,15668,256,574,-91
0,-356,15640,511,566,-86
0,-348,15944,256,563,-88
0,-296,15912,256,586,-118
0,-352,15896,256,554,-92
0,-328,15684,511,588,-95
0,-372,15904,256,567,-67
0,-444,15652,511,550,-92
0,-616,16104,256,562,-81
0,-368,15660,511,561,-104
0,-412,15640,511,574,-74
0,-404,15892,256,590,-93
0,-348,15684,511,567,-85
0,-368,15940,256,601,-81
0,-336,15892,256,590,-98
0,-416,15872,256,571,-46
0,-408,15692,511,589,-87
0,-668,15864,511,589,-86
0,-336,15908,256,556,-62
0,-320,15676,511,579,-85
0,-316,15900,256,564,-100
0,-360,15700,511,600,-54
0,-344,15936,256,561,-81
0,-392,15880,256,586,-67
0,-368,15652,511,565,-77
0,-372,15640,511,574,-97
0,-376,15936,256,561,-73
0,-604,15860,511,571,-109
0,-384,15980,256,550,-110
0,-352,15928,511,583,-94
0,-672,16120,256,576,-83
0,-332,15968,256,577,-111
0,-324,15644,511,572,-44
0,-620,15864,511,587,-103
0,-416,15888,256,545,-94
0,-376,15648,511,533,-51
0,-312,15692,511,576,-83
0,-376,15944,256,566,-94
0,-384,15688,511,576,-69
0,-400,15872,256,579,-51
0,-372,15888,256,589,-75
0,-388,15904,256,537,-65
0,-352,15692,511,577,-94
0,-376,15692,511,611,-70
0,-448,15652,511,579,-87
0,-368,15636,511,566,-68
0,-412,15684,511,588,-87
0,-356,15632,511,596,-79
0,-340,15928,511,553,-88
0,-428,15916,256,569,-70
0,-656,16108,256,565,-85
0,-356,15908,256,548,-83
0,-352,15700,511,545,-66
0,-380,15988,256,581,-59
0,-392,15700,511,593,-74
0,-400,15892,256,588,-50
0,-328,15704,511,550,-85
0,-404,15760,511,568,-69
0,-416,15908,256,549,-81
0,-360,15956,256,598,-45
0,-356,15644,511,587,-69
0,-368,15900,256,569,-90
0,-396,15892,256,594,-73
0,-396,15944,256,567,-75
0,-396,15652,511,544,-89
0,-312,15632,511,562,-62
0,-596,15852,511,584,-87
0,-316,15968,256,559,-83
0,-368,15692,511,576,-70
0,-340,15692,511,575,-106
0,-324,15712,511,600,-105
0,-344,15712,511,588,-57
0,-336,15960,256,573,-97
0,-328,15940,256,562,-95
0,-332,15924,256,572,-92
0,-368,15892,256,570,-89
0,-392,15664,511,595,-100
0,-316,15628,511,571,-80
0,-388,15636,511,574,-72
0,-392,15632,511,584,-90
0,-364,15656,511,563,-71
0,-336,15636,511,544,-76
0,-372,15896,256,590,-73
0,-388,15920,256,580,-73
0,-416,15708,511,582,-67
0,-332,15684,511,565,-82
0,-376,15644,511,575,-64
0,-340,15644,511,557,-73
0,-628,15868,511,582,-62
0,-376,15648,511,578,-78
0,-332,15672,511,571,-67
0,-356,15688,511,540,-75
0,-384,15688,511,562,-94
0,-364,15620,511,581,-68
0,-336,15692,511,580,-78
0,-336,15932,256,573,-77
0,-332,15676,511,545,-91
0,-424,15712,511,566,-82
0,-412,15632,511,546,-98
0,-416,15920,256,565,-78
0,-360,15716,511,573,-97
0,-316,15700,511,555,-83
0,-284,15700,511,567,-98
0,-420,15684,511,563,-76
0,-392,15944,256,577,-63
0,-400,15896,256,558,-89
0,-312,15880,256,541,-108
0,-344,15672,511,573,-87
0,-372,15632,511,564,-82
0,-348,15660,511,584,-97
0,-364,15892,256,576,-59
0,-368,15676,511,591,-83
0,-360,15704,511,584,-75
0,-320,15624,511,543,-88
0,-612,15856,511,585,-74
0,-356,15760,511,561,-103
0,-384,15628,511,580,-92
0,-304,15708,511,576,-52
0,-284,15724,511,568,-52
0,-352,15704,511,567,-75
0,-332,15724,511,605,-91
0,-332,15628,511,574,-119
0,-340,15684,511,566,-82
0,-384,15644,511,601,-64
0,-368,15960,256,586,-102
0,-408,15888,256,569,-75
0,-348,15896,256,567,-106
0,-384,15616,511,579,-99
0,-284,15740,511,587,-67
0,-400,15648,511,557,-66
0,-644,16084,256,562,-56
0,-400,15680,511,577,-69
0,-384,15700,511,576,-78
0,-384,15688,511,574,-97
0,-360,15660,511,581,-77
0,-364,15632,511,582,-56
0,-400,15656,511,616,-66
0,-412,15688,511,581,-86
0,-624,15836,511,573,-30
0,-368,15628,256,555,-80
0,-376,15684,511,551,-95
0,-364,15896,256,584,-61
0,-356,15688,511,577,-86
0,-348,15688,511,560,-66
0,-416,15624,256,590,-77
0,-348,15928,256,568,-87
0,-364,15920,256,574,-83
0,-376,15896,256,575,-88
0,-320,15956,256,562,-80
0,-344,15920,256,567,-82
0,-376,15892,256,592,-75
0,-396,15656,511,599,-85
0,-392,15636,511,583,-97
0,-396,15632,511,571,-74
0,-384,15708,511,545,-85
0,-604,15868,511,597,-66
0,-356,15628,511,587,-64
0,-352,15944,256,581,-65
0,-372,15656,511,565,-86
0,-368,15928,256,569,-113
0,-396,15672,511,601,-75
0,-388,15636,511,544,-103
0,-372,15680,511,568,-86
0,-408,15904,256,566,-82
0,-368,15644,511,561,-51
0,-356,15684,511,561,-105
0,-396,15908,256,599,-93
0,-316,15892,256,580,-71
0,-388,15896,256,583,-73
0,-348,15636,511,595,-92
0,-364,15700,511,562,-72
0,-436,15656,511,558,-99
0,-308,15936,256,586,-97
0,-376,15636,511,588,-107
0,-372,15656,511,575,-78
0,-420,15680,256,577,-86
0,-348,15676,511,583,-74
0,-380,15880,256,585,-96
0,-376,15664,511,587,-64
0,-376,15676,511,548,-95
0,-372,15936,256,576,-97
0,-372,15880,256,575,-55
0,-348,15620,511,577,-104
0,-356,15692,511,567,-87
0,-376,15672,511,571,-78
0,-364,15660,511,568,-80
0,-348,15644,511,572,-57
0,-360,15920,256,561,-83
0,-360,15912,256,568,-75
0,-388,15704,511,558,-67
0,-352,15640,511,573,-75
0,-408,15896,256,584,-95
0,-380,15628,511,582,-89
0,-316,15660,511,572,-81
0,-680,15868,511,551,-98
0,-364,15668,511,585,-77
0,-304,15920,256,595,-78
0,-384,15764,511,554,-110
0,-352,15712,511,562,-67
0,-356,15684,511,555,-73
0,-632,15868,511,584,-86
0,-304,15932,256,567,-67
0,-400,15924,256,561,-65
0,-308,15692,511,606,-62
0,-344,15720,511,534,-83
0,-384,15936,256,570,-86
0,-344,15952,256,581,-55
0,-368,15652,511,594,-79
0,-360,15668,511,575,-68
0,-336,15916,256,577,-73
0,-296,15712,511,579,-120
0,-388,15704,511,573,-78
0,-364,15632,511,588,-79
0,-348,15660,511,581,-70
0,-392,15704,511,575,-100
0,-580,16104,256,570,-75
0,-340,15628,511,562,-77
0,-348,16004,256,571,-72
0,-384,15672,511,561,-100
0,-428,15956,256,557,-85
0,-420,15892,256,589,-86
0,-344,15660,511,569,-56
0,-396,15876,256,561,-73
0,-364,15636,511,565,-90
0,-620,15864,511,587,-70
0,-360,15936,256,563,-65
0,-316,15640,511,581,-137
0,-388,15696,511,579,-78
0,-396,15688,511,562,-80
0,-360,15696,511,571,-89
0,-376,15676,511,554,-78
0,-380,15688,511,558,-79
0,-344,15948,256,560,-97
0,-400,15668,511,549,-53
0,-412,15668,511,569,-69
0,-360,15936,256,590,-89
0,-384,15676,511,568,-97
0,-388,15896,256,594,-77
0,-336,15652,511,578,-54
0,-404,15976,256,600,-68
0,-332,15956,256,564,-95
0,-592,16112,256,586,-104
0,-408,15648,511,556,-51
0,-388,15636,511,586,-82
0,-408,15920,256,594,-120
0,-404,15632,511,569,-88
0,-388,15904,256,582,-98
0,-304,15644,511,588,-106
0,-404,15692,256,577,-79
0,-352,15680,511,578,-47
0,-568,15852,511,595,-117
0,-384,15676,511,588,-71
0,-368,15648,511,581,-97
0,-404,15692,511,566,-66
0,-392,15668,511,573,-96
0,-380,15656,511,559,-86
0,-412,15624,511,583,-84
0,-376,15888,256,588,-56
0,-660,16068,256,564,-89
0,-324,15680,511,562,-67
0,-384,15644,511,556,-85
0,-416,15944,256,600,-67
0,-404,15904,256,577,-91
0,-392,15928,256,575,-86
0,-408,15684,511,561,-44
0,-408,15928,256,568,-116
0,-376,15656,511,586,-59
0,-332,15664,511,552,-117
0,-408,15888,256,573,-85
0,-388,15632,511,581,-58
0,-324,15656,511,548,-74
0,-404,15644,511,579,-75
0,-364,15916,256,574,-67
0,-352,15656,511,575,-91
0,-440,15908,256,561,-88
0,-392,15620,511,579,-71
0,-588,16108,256,570,-116
0,-296,15728,511,556,-48
0,-364,15932,256,554,-106
0,-676,15856,511,565,-78
0,-412,15892,256,550,-88
0,-380,15660,511,584,-71
0,-664,15864,511,575,-82
0,-356,15912,256,573,-107
0,-588,15864,511,544,-87
0,-328,15668,511,592,-58
0,-636,16120,256,598,-81
0,-396,15616,511,536,-79
0,-332,15720,511,554,-102
0,-376,15900,256,577,-61
0,-612,16120,256,558,-105
0,-392,15712,511,618,-79
0,-468,15648,511,587,-102
0,-336,15628,511,575,-88
0,-420,15964,256,569,-100
0,-376,15652,511,561,-63
0,-376,15940,256,575,-66
0,-292,15912,256,548,-90
0,-384,15644,511,566,-79
0,-396,15620,511,578,-62
0,-352,15888,256,544,-40
0,-380,15668,511,552,-80
0,-332,15704,511,580,-57
0,-392,15696,511,582,-64
0,-328,15924,256,575,-73
0,-420,15940,256,588,-90
0,-604,16116,256,570,-69
0,-408,15952,256,566,-78
0,-368,15928,256,573,-66
0,-364,15728,511,598,-82
0,-336,15952,256,563,-73
0,-660,15812,511,590,-86
0,-420,15692,511,593,-79
0,-392,15668,511,592,-77
0,-388,15688,511,548,-92
0,-376,15872,256,591,-102
0,-576,15852,511,569,-74
0,-392,15616,511,567,-92
0,-344,15688,511,581,-63
0,-340,15912,256,556,-80
0,-388,15688,511,575,-101
0,-328,15668,511,589,-56
0,-380,15616,511,575,-96
0,-344,15920,256,552,-80
0,-408,15692,511,597,-76
0,-356,15684,511,580,-75
0,-404,15992,256,586,-119
0,-400,15680,511,589,-70
0,-336,15640,511,577,-67
0,-400,15720,511,583,-112
0,-300,15648,511,569,-84
0,-416,15928,256,606,-74
0,-376,15652,511,557,-59
0,-360,15992,256,611,-101
0,-392,15696,511,568,-72
0,-388,15684,511,587,-61
0,-404,15880,256,575,-67
0,-348,15716,511,555,-108
0,-592,15868,511,573,-74
0,-568,15868,511,558,-65
0,-364,15664,511,596,-108
0,-380,15716,511,565,-81
0,-636,15856,511,592,-89
0,-388,15904,256,554,-55
0,-388,15928,256,615,-103
0,-444,15632,256,568,-112
0,-348,15936,256,584,-80
0,-356,15900,256,586,-83
0,-332,15904,256,552,-95
0,-384,15892,256,553,-67
0,-464,15916,256,563,-84
0,-368,15636,511,577,-96
0,-444,15672,511,593,-102
0,-432,15692,511,562,-71
0,-344,15900,256,580,-70
0,-620,16060,256,553,-76
0,-380,15628,511,595,-123
0,-304,15640,511,576,-78
0,-632,15868,511,538,-69
0,-368,15876,256,581,-67
0,-384,15936,256,557,-74
0,-324,15672,511,563,-78
0,-364,15972,256,558,-77
0,-380,15648,511,577,-77
0,-408,15928,256,593,-62
0,-380,15880,256,588,-96
0,-344,15880,256,548,-100
0,-356,15956,256,578,-68
0,-364,15920,256,607,-79
0,-348,15684,511,574,-83
0,-312,15668,511,570,-54
0,-644,15852,511,598,-42
0,-356,15692,511,544,-60
0,-384,15920,256,602,-85
0,-412,15936,256,599,-89
0,-420,15904,256,561,-69
0,-368,15956,256,572,-126
0,-352,15620,511,585,-59
0,-408,15652,511,596,-67
0,-444,15644,511,575,-74
0,-368,15668,256,586,-57
0,-636,15852,511,581,-87
0,-412,15896,256,609,-104
0,-392,15716,511,579,-76
0,-600,15824,511,556,-68
0,-384,15912,256,547,-80
0,-400,15696,511,583,-76
0,-340,15696,511,580,-79
0,-332,15928,256,587,-67
0,-412,15936,256,573,-57
0,-636,16124,256,575,-98
0,-328,15928,256,531,-50
0,-336,15648,511,582,-99
0,-388,15884,256,546,-103
0,-328,15644,511,577,-55
0,-372,15976,256,579,-86
0,-372,15912,256,565,-78
0,-364,15932,256,585,-62
0,-280,15672,511,589,-93
0,-352,15620,511,570,-84
0,-356,15664,511,556,-71
0,-396,15648,511,574,-100
0,-380,15956,256,598,-78
0,-636,16120,256,563,-39
0,-408,15692,511,580,-87
0,-376,15668,256,557,-98
0,-328,15708,511,571,-86
0,-392,15664,511,591,-72
0,-388,15700,511,565,-100
0,-292,15648,511,582,-113
0,-332,15940,256,575,-62
0,-340,15632,511,530,-85
0,-388,15696,511,590,-52
0,-604,15860,511,582,-95
0,-368,15668,511,544,-118
0,-368,15692,511,563,-56
0,-344,15956,256,574,-87
0,-304,15904,256,558,-92
0,-340,15656,511,570,-49
0,-360,15940,256,589,-87
0,-412,15680,511,564,-58
0,-396,15620,511,581,-101
0,-372,15664,511,586,-83
0,-376,15660,511,550,-72
0,-432,15644,511,580,-76
0,-372,15692,511,593,-98
0,-344,15660,511,596,-65
0,-364,15720,511,582,-67
0,-368,15684,511,590,-109
0,-332,15996,256,566,-65
0,-384,15696,511,553,-78
0,-380,15880,256,580,-88
0,-360,15928,256,543,-65
0,-372,15712,511,571,-41
0,-364,15672,511,575,-64
0,-400,15704,511,607,-94
0,-404,15644,511,583,-96
0,-408,15900,256,574,-86
0,-308,15616,511,577,-81
0,-304,15680,511,567,-70
0,-644,16120,256,576,-76
0,-404,15716,511,582,-104
0,-352,15644,511,582,-63
0,-356,15648,511,584,-55
0,-376,15616,511,584,-101
0,-656,15868,511,572,-78
0,-392,15692,511,557,-69
0,-388,15616,511,584,-84
0,-376,15616,511,577,-65
0,-388,15912,256,572,-55
0,-316,15652,511,586,-90
0,-336,15656,511,565,-54
0,-360,15640,511,543,-77
0,-360,15720,511,588,-89
0,-372,15680,511,584,-77
0,-584,15836,511,588,-86
0,-388,15664,511,601,-87
0,-328,15932,256,579,-72
0,-360,15656,511,574,-99
0,-344,15660,511,561,-77
0,-304,15712,511,583,-71
0,-376,15700,511,588,-80
0,-392,15708,511,550,-87
0,-336,15892,256,575,-76
0,-348,15660,511,597,-89
0,-368,15884,256,566,-69
0,-340,15692,511,589,-80
0,-264,15956,256,571,-89
0,-428,15688,511,560,-76
0,-448,15932,256,574,-61
0,-408,15616,511,574,-86
0,-408,15692,511,538,-99
0,-432,15624,511,598,-102
0,-396,15900,256,581,-73
0,-408,15936,256,584,-93
0,-668,16108,256,565,-79
0,-356,15652,511,581,-75
0,-332,15620,511,567,-107
0,-340,15692,511,552,-87
0,-340,15696,511,576,-93
0,-416,15704,511,591,-82
0,-404,15940,256,558,-55
0,-404,15928,256,551,-71
0,-352,15948,256,609,-87
0,-316,15960,256,594,-85
0,-368,15880,256,575,-78
0,-404,15684,511,568,-72
0,-380,15688,511,586,-103
0,-364,15708,511,593,-88
0,-336,15680,511,565,-38
0,-352,15924,256,549,-52
0,-348,15956,256,594,-91
0,-364,15652,511,541,-85
0,-376,15952,256,557,-98
0,-352,15664,511,583,-123
0,-384,15656,511,556,-61
0,-328,15688,511,572,-76
0,-328,15936,256,587,-68
0,-380,15632,511,579,-99
0,-388,15952,256,573,-73
0,-344,15616,511,582,-64
0,-384,15616,511,611,-54
0,-368,15636,511,561,-100
0,-384,15660,511,559,-96
0,-348,15712,511,567,-120
0,-332,15900,256,577,-74
0,-268,15924,256,568,-88
0,-368,15888,256,577,-76
0,-376,15648,511,590,-78
0,-368,15884,256,576,-68
0,-420,15900,256,585,-98
0,-692,15852,511,565,-90
0,-344,15648,511,565,-83
0,-416,15648,256,584,-75
0,-364,15640,511,588,-70
0,-340,15924,256,564,-124
0,-420,15888,256,542,-95
0,-680,16120,256,579,-79
0,-356,15644,511,561,-92
0,-376,15924,256,536,-86
0,-296,15956,256,557,-87
0,-652,16112,256,572,-88
0,-300,15960,256,570,-103
0,-400,15688,256,585,-90
0,-324,15668,511,577,-55
0,-352,15900,256,591,-90
0,-388,15660,511,592,-74
0,-280,15624,511,539,-59
0,-344,15676,511,560,-83
0,-352,15940,256,578,-67
0,-344,15620,511,561,-96
0,-592,15856,511,546,-78
0,-356,15692,511,582,-43
0,-372,15896,256,573,-85
0,-384,15664,511,582,-99
0,-392,15936,256,552,-71
0,-352,16004,256,560,-88
0,-352,15632,511,559,-96
0,-408,15680,511,579,-71
0,-384,15900,256,580,-70
0,-368,15652,511,553,-68
0,-396,15896,256,569,-65
0,-376,15932,256,610,-75
0,-384,15692,511,567,-90
0,-316,15704,511,601,-72
0,-348,15884,256,587,-97
0,-392,15888,256,574,-80
0,-344,15640,511,570,-64
0,-396,15968,256,567,-113
0,-344,15660,511,557,-86
0,-308,15936,256,591,-109
0,-284,15940,256,572,-96
0,-364,15700,511,563,-81
0,-340,15632,511,545,-63
0,-364,15628,511,591,-69
0,-344,15672,511,601,-82
0,-376,15920,256,580,-47
0,-312,15908,256,576,-77
0,-396,15964,256,575,-85
0,-384,15920,256,588,-111
0,-444,15872,256,562,-77
0,-364,15872,256,579,-96
0,-384,15920,256,582,-98
0,-420,15656,511,580,-84
0,-652,16124,256,594,-64
0,-600,15856,511,584,-78
0,-364,15876,256,554,-67
0,-404,15620,511,548,-93
0,-352,15632,511,567,-59
0,-368,15676,511,570,-127
0,-352,15644,511,572,-119
0,-360,15940,256,592,-63
0,-424,15936,256,571,-107
0,-340,15912,256,563,-70
0,-352,15620,511,572,-72
0,-344,15944,256,593,-89
0,-344,15648,511,566,-56
0,-408,15684,511,572,-74
0,-332,15916,256,567,-70
0,-436,15984,256,590,-100
0,-360,15660,511,558,-82
0,-468,15908,256,566,-59
0,-376,15648,511,556,-86
0,-336,15660,511,572,-74
0,-364,15636,511,583,-85
0,-372,15660,511,559,-105
0,-288,15924,256,578,-95
0,-308,15912,256,583,-98
0,-300,15940,256,592,-92
0,-376,15944,256,581,-85
0,-344,15920,256,579,-77
0,-384,16012,256,589,-72
0,-384,15644,511,584,-106
0,-348,15624,511,551,-105
0,-536,15860,511,554,-83
0,-448,15680,511,558,-73
0,-408,15944,256,586,-94
0,-364,15660,511,578,-84
0,-348,15648,511,564,-117
0,-308,15956,256,588,-92
0,-352,15624,511,556,-70
0,-380,15884,256,566,-91
0,-368,15684,511,596,-56
0,-628,16100,256,586,-95
0,-372,15668,511,539,-95
0,-360,15648,511,583,-76
0,-376,15912,256,610,-106
0,-368,15660,256,567,-79
0,-372,15624,511,556,-86
0,-392,15656,511,587,-77
0,-572,16124,256,559,-90
0,-372,15920,256,594,-114
0,-340,15656,511,555,-68
0,-316,15668,511,578,-107
0,-372,15672,511,560,-95
0,-332,15628,511,570,-80
0,-324,15648,511,564,-107
0,-320,15660,511,547,-81
0,-320,15936,256,609,-96
0,-404,15648,511,577,-68
0,-284,15648,511,538,-97
0,-368,15920,256,548,-70
0,-356,15692,511,574,-105
0,-412,15644,511,599,-76
0,-272,15672,511,572,-91
0,-404,15920,256,543,-79
0,-408,15672,511,583,-97
0,-372,15668,511,586,-68
0,-364,15640,511,556,-89
0,-388,15624,511,547,-70
0,-608,16116,256,573,-50
0,-404,15664,511,576,-66
0,-364,15920,256,595,-104
0,-384,15708,511,585,-95
0,-336,15964,256,609,-78
0,-604,15832,511,577,-60
0,-340,15664,511,573,-68
0,-324,15680,511,547,-85
0,-340,15692,511,590,-131
0,-320,15636,511,578,-84
0,-384,15676,511,606,-81
0,-392,15928,256,582,-105
0,-652,15868,511,552,-86
0,-372,15656,511,565,-85
0,-368,15628,511,563,-81
0,-368,15892,256,570,-94
0,-300,15948,256,546,-94
0,-304,15700,511,579,-80
0,-396,15884,256,573,-53
0,-348,15652,511,565,-110
0,-316,15688,511,583,-85
0,-360,15904,256,571,-67
0,-408,15644,511,584,-105
0,-360,15948,256,567,-77
256,-500,15892,256,571,-94
0,-356,15624,511,572,-80
0,-356,15684,511,570,-87
0,-352,15900,256,558,-72
0,-320,15660,511,565,-77
0,-400,15876,256,553,-110
0,-588,15840,511,573,-82
0,-416,15956,256,575,-98
0,-668,15856,511,595,-68
0,-576,15860,511,558,-83
0,-360,15644,511,558,-105
0,-344,15620,511,574,-68
0,-396,15688,511,610,-95
0,-384,15884,256,574,-97
0,-320,15688,511,561,-88
0,-420,15668,511,570,-90
0,-348,15712,511,585,-85
0,-636,16100,256,584,-90
0,-424,15876,256,561,-50
0,-628,15860,511,571,-91
0,-360,15876,256,594,-73
0,-640,16092,256,585,-56
0,-380,15888,256,573,-68
0,-328,15960,256,569,-103
0,-364,15652,511,578,-63
0,-348,15940,256,603,-77
0,-672,16120,256,574,-80
0,-308,15640,511,582,-78
0,-408,15912,256,582,-103
0,-340,15708,511,592,-95
0,-328,15900,256,556,-98
0,-604,16124,256,546,-56
0,-352,15624,511,569,-60
0,-356,15932,256,612,-80
0,-332,15648,511,543,-87
0,-368,15708,511,583,-102
0,-328,15636,511,573,-98
0,-384,15652,511,583,-87
0,-360,15676,256,579,-73
0,-356,15648,511,554,-86
0,-284,15628,511,563,-88
0,-420,15700,511,577,-91
0,-352,15644,511,586,-65
0,-320,15928,256,590,-64
0,-396,15960,256,586,-77
0,-388,15640,511,550,-92
0,-316,15712,511,601,-61
0,-368,15912,256,601,-82
0,-384,15884,256,584,-81
0,-272,15664,511,570,-92
0,-364,15952,256,567,-79
0,-344,15644,511,579,-101
0,-372,15672,511,582,-90
0,-376,15968,256,582,-89
0,-352,15972,256,588,-67
0,-436,15628,511,556,-95
0,-416,15752,511,578,-104
0,-304,15668,511,579,-78
0,-660,16120,256,557,-65
0,-344,15884,256,566,-113
0,-356,15648,511,581,-81
0,-380,15636,511,572,-89
0,-428,15640,511,579,-80
0,-644,16092,256,577,-99
0,-372,15672,511,572,-75
0,-604,16124,256,568,-62
0,-400,15912,256,573,-65
0,-360,15928,256,581,-86
255,-376,15896,256,530,-73
0,-364,15648,511,586,-72
0,-404,15656,511,589,-80
0,-420,15680,511,567,-95
0,-332,15640,511,552,-77
0,-388,15648,511,583,-71
0,-368,15908,256,573,-111
0,-404,15700,511,570,-80
0,-336,15872,256,570,-69
0,-296,15684,511,586,-91
0,-620,16120,256,580,-84
0,-336,15648,511,584,-122
0,-376,15664,511,570,-81
0,-408,15660,511,568,-62
0,-580,16116,256,581,-62
0,-372,15664,511,586,-84
0,-416,15696,511,568,-98
0,-424,15664,511,555,-52
0,-352,15948,256,587,-85
0,-384,15656,511,580,-84
0,-340,15696,511,585,-75
0,-328,15980,256,555,-96
0,-368,15948,256,572,-73
0,-380,15664,511,583,-67
0,-632,15856,511,562,-60
0,-396,15640,511,555,-89
0,-432,15620,511,576,-93
0,-320,15900,256,574,-101
0,-636,15844,511,550,-93
0,-400,15944,256,565,-82
0,-316,15640,511,574,-87
0,-312,15896,256,587,-67
0,-380,15948,256,563,-93
0,-320,15624,511,565,-71
0,-636,16116,511,616,-74
0,-360,15912,256,552,-81
0,-340,15892,256,570,-94
0,-328,15972,256,546,-67
0,-340,15696,511,579,-82
0,-372,15696,511,568,-73
0,-416,15728,511,600,-102
0,-352,15664,511,544,-68
0,-376,15920,256,569,-81
0,-336,15924,256,584,-73
0,-456,15692,511,598,-56
0,-388,15908,256,571,-103
0,-356,15940,256,546,-89
0,-316,15880,256,559,-107
0,-408,15940,256,570,-65
0,-364,15648,511,589,-78
0,-364,15900,256,575,-71
0,-388,15672,511,575,-100
0,-416,15664,511,556,-57
0,-388,15936,256,583,-85
0,-376,15984,256,583,-54
0,-588,16116,256,558,-77
0,-364,15648,511,585,-116
0,-356,15648,511,571,-70
0,-384,15644,511,590,-111
0,-400,15948,256,551,-110
0,-384,15640,511,577,-59
0,-376,15880,256,589,-81
0,-440,15672,511,569,-72
0,-380,15712,511,559,-103
0,-320,15724,511,579,-91
0,-392,15636,511,571,-117
0,-428,15692,511,550,-79
0,-320,15948,256,579,-80
0,-304,15660,511,546,-87
0,-380,15668,511,567,-110
0,-352,15912,256,587,-89
0,-404,15684,511,583,-103
0,-360,15704,256,553,-79
0,-360,15884,256,575,-115
0,-332,15664,511,585,-91
0,-404,15924,256,552,-79
0,-384,15700,511,566,-84
0,-384,15764,511,578,-110
0,-388,15732,511,587,-97
0,-364,15720,511,578,-122
0,-300,15624,511,560,-75
0,-380,15996,256,571,-70
0,-364,15968,256,573,-74
0,-356,15688,511,565,-70
0,-420,15628,511,589,-109
0,-396,15728,511,545,-92
0,-352,15652,511,601,-82
0,-408,15640,511,575,-98
0,-404,15908,256,579,-96
0,-328,15632,511,560,-70
0,-396,15904,256,589,-81
0,-376,15912,256,556,-73
0,-336,15940,256,569,-70
0,-364,15668,511,561,-76
0,-404,15884,256,572,-70
0,-368,15676,511,603,-93
0,-388,15616,511,597,-79
0,-620,15844,511,583,-108
0,-384,15680,511,584,-92
0,-380,15692,511,567,-70
0,-360,15688,511,581,-87
0,-304,15668,511,586,-117
0,-336,15928,256,552,-58
0,-396,15636,511,568,-98
0,-428,15988,256,593,-96
0,-664,16112,256,586,-109
0,-404,15660,511,570,-85
0,-360,15936,256,555,-81
0,-344,15920,256,588,-98
0,-404,15672,511,575,-73
0,-308,15960,256,553,-70
0,-352,15696,511,590,-76
0,-360,15940,256,573,-116
0,-356,15672,511,597,-96
0,-316,15700,511,575,-84
0,-372,15872,256,585,-48
0,-288,15672,256,531,-63
0,-312,15928,256,585,-73
0,-368,15912,256,542,-58
0,-332,15956,256,551,-89
0,-332,15628,511,565,-86
0,-380,15676,511,568,-90
0,-344,15956,256,570,-92
0,-340,15888,256,537,-76
0,-368,15624,511,571,-91
0,-340,15676,511,572,-80
0,-404,15700,511,562,-112
0,-392,15872,256,582,-89
0,-356,15676,511,564,-62
0,-364,15880,256,582,-67
0,-348,15656,511,573,-78
0,-332,15936,256,560,-103
0,-352,15640,511,589,-58
0,-300,15672,511,576,-84
0,-360,15924,256,558,-68
0,-372,15652,511,563,-126
0,-620,16100,256,585,-81
0,-392,15924,256,556,-47
0,-416,15620,511,568,-96
0,-384,15920,256,569,-72
0,-392,15940,256,540,-75
0,-368,15628,511,531,-79
0,-312,15688,511,571,-69
0,-384,15932,256,585,-52
0,-392,15636,511,554,-96
0,-352,15972,256,590,-100
0,-364,15660,511,585,-72
0,-360,15636,511,553,-90
0,-376,15904,256,579,-82
0,-384,15620,511,574,-52
0,-328,15628,511,598,-88
0,-380,15924,256,587,-119
0,-416,15936,256,549,-77
0,-668,15852,511,553,-77
0,-324,15636,511,595,-61
0,-376,15932,256,554,-116
0,-336,15672,511,606,-85
0,-616,16120,256,549,-76
0,-352,15644,511,561,-73
0,-612,15840,511,579,-57
0,-340,15632,511,579,-91
0,-372,15692,511,591,-90
0,-304,15676,511,569,-85
0,-388,15924,256,550,-68
0,-400,15940,256,585,-91
0,-356,15872,256,586,-101
0,-376,15904,256,562,-103
0,-312,16000,256,576,-77
0,-384,15672,511,579,-75
0,-396,15628,511,560,-115
0,-376,15700,511,604,-92
0,-380,15684,511,567,-84
0,-472,15928,256,599,-80
0,-360,15664,511,559,-65
0,-348,15900,256,587,-82
0,-332,15940,256,556,-116
0,-344,15912,256,587,-105
0,-384,15636,511,544,-84
0,-328,15968,256,558,-69
255,-316,15708,511,583,-65
0,-388,15912,256,578,-88
0,-328,15892,256,585,-77
0,-344,15696,511,582,-99
0,-308,15696,511,583,-65
0,-376,15684,511,560,-98
0,-368,15708,511,596,-101
0,-404,15912,256,584,-74
0,-332,15740,511,573,-110
0,-408,15876,256,597,-96
0,-372,15912,256,552,-80
0,-356,15632,511,565,-96
0,-368,15916,256,594,-58
0,-376,15684,511,605,-90
0,-364,15896,256,547,-79
0,-380,15704,511,568,-74
0,-376,15672,511,583,-100
0,-372,15892,256,561,-73
0,-304,15928,256,571,-91
0,-428,15680,511,563,-75
0,-372,15724,511,552,-69
0,-612,16092,256,580,-103
0,-344,15628,511,573,-81
0,-380,15904,256,578,-94
0,-372,15640,511,577,-101
0,-328,15928,256,572,-73
0,-300,15652,511,584,-103
0,-336,15908,256,591,-105
0,-336,15936,256,563,-69
0,-360,15640,511,589,-62
0,-308,15624,511,561,-91
0,-384,15672,511,558,-76
0,-388,15684,511,577,-98
0,-352,15640,511,562,-93
0,-352,15900,256,587,-65
0,-380,15624,511,580,-79
0,-360,15624,511,576,-119
0,-348,15664,511,571,-89
0,-356,15716,511,580,-88
0,-408,15652,511,568,-90
0,-400,15692,511,557,-83
0,-392,15944,256,576,-85
0,-356,15636,511,571,-93
0,-608,15864,511,607,-79
0,-608,16120,256,570,-102
0,-380,15656,511,573,-92
0,-332,15912,256,581,-92
0,-344,15704,511,548,-80
0,-312,15896,256,594,-89
0,-376,15696,511,576,-65
0,-340,15744,511,589,-103
0,-384,15656,511,544,-123
0,-400,15896,256,540,-90
0,-356,15928,256,587,-70
0,-372,15680,511,554,-63
0,-388,15932,256,555,-73
0,-368,15644,511,589,-91
0,-372,15908,256,567,-92
0,-336,15916,256,555,-73
0,-336,15648,511,589,-69
0,-380,15644,511,561,-93
0,-380,15960,256,564,-89
0,-632,15868,511,565,-86
0,-428,15632,511,529,-76
0,-568,15868,511,577,-76
0,-336,15656,511,583,-62
0,-404,15872,256,588,-50
0,-344,15652,511,563,-91
0,-384,15652,511,581,-80
0,-616,15864,511,567,-85
0,-384,15652,511,554,-96
0,-344,15664,511,570,-93
0,-392,15668,511,584,-70
255,-364,15920,256,582,-73
0,-344,15692,511,575,-60
0,-368,15636,511,559,-91
0,-632,15852,511,571,-76
0,-672,15868,256,551,-91
0,-308,15656,511,572,-67
0,-376,15684,511,540,-86
0,-352,15880,256,589,-50
0,-684,15864,511,568,-79
0,-292,15932,256,561,-88
0,-356,15916,256,552,-95
0,-392,15668,511,560,-87
0,-368,15644,511,577,-74
0,-352,15652,511,601,-99
0,-368,15636,511,593,-96
0,-604,15860,511,581,-95
0,-376,15668,511,545,-76
0,-360,15660,511,564,-104
0,-348,15884,256,597,-84
0,-400,15620,511,580,-95
0,-344,15896,256,574,-91
0,-364,15660,511,557,-59
0,-444,15932,256,577,-77
0,-420,15716,511,576,-90
0,-344,15956,256,573,-70
0,-388,15968,256,588,-97
0,-368,15660,511,546,-64
0,-384,15648,511,576,-52
0,-612,16120,256,584,-104
0,-332,15948,256,570,-72
