Ax,Ay,Az,Gx,Gy,Gz
0,-316,15956,256,557,-78
0,-344,15640,511,576,-71
0,-592,16100,256,571,-95
0,-332,15944,256,560,-93
0,-336,15664,511,596,-79
0,-616,15848,511,573,-88
0,-336,15888,256,566,-107
0,-372,15708,511,576,-132
0,-316,15700,511,560,-98
0,-316,15972,256,571,-59
0,-372,15916,256,562,-94
255,-404,15668,511,558,-118
0,-420,15932,256,566,-98
0,-316,15684,511,596,-138
0,-376,15992,256,548,-110
0,-304,15708,511,581,-119
0,-300,15688,511,564,-99
0,-352,15624,511,604,-111
0,-308,15656,511,584,-71
0,-344,15624,511,577,-99
255,-396,15924,256,599,-115
0,-376,15892,256,560,-124
0,-364,15928,256,583,-94
0,-640,16108,256,575,-99
0,-316,15896,256,567,-117
0,-312,15672,511,609,-102
0,-340,15660,511,566,-102
0,-360,15924,256,575,-104
0,-376,15632,511,579,-106
0,-320,15916,256,576,-84
0,-376,15660,511,557,-100
0,-416,15624,511,583,-62
0,-356,15912,256,576,-91
0,-388,15620,511,588,-99
0,-344,15916,256,588,-98
0,-308,15624,511,561,-91
0,-384,15880,256,587,-85
0,-376,15696,511,569,-95
0,-356,15988,256,530,-129
255,-340,15652,511,579,-73
0,-660,15864,511,582,-76
0,-368,15672,511,590,-79
0,-404,15912,256,572,-125
0,-340,15928,256,554,-83
255,-440,15960,256,584,-99
0,-352,15628,511,571,-124
255,-636,15868,511,576,-74
0,-380,15640,511,574,-107
0,-372,15928,256,559,-104
0,-352,15960,256,570,-96
0,-416,15620,511,574,-123
0,-388,15652,511,581,-77
0,-376,15900,256,560,-83
0,-344,15620,511,585,-90
0,-344,15892,256,546,-97
255,-352,15896,256,568,-91
0,-588,16124,256,598,-109
0,-380,15640,511,569,-101
0,-384,15720,511,547,-61
0,-340,15704,511,561,-111
0,-368,15932,256,605,-92
0,-472,15972,256,545,-90
0,-364,15648,511,566,-87
0,-400,15676,511,580,-111
0,-376,15664,511,589,-94
0,-360,15680,511,578,-72
0,-368,15920,256,560,-117
0,-544,16120,256,579,-89
0,-660,16120,256,579,-118
0,-360,15640,511,584,-69
0,-424,15676,511,575,-100
0,-320,15664,511,574,-88
0,-324,15664,511,555,-119
0,-660,16124,256,536,-73
0,-568,16124,256,597,-97
0,-328,15976,256,563,-88
0,-376,15684,511,570,-94
0,-392,15688,511,576,-120
0,-340,15640,511,594,-99
0,-364,15624,511,572,-81
255,-384,15936,256,560,-99
0,-424,15924,256,567,-103
0,-356,15652,511,583,-98
0,-344,15712,511,558,-108
0,-392,15896,256,591,-110
0,-340,15676,511,583,-107
0,-376,15704,511,552,-117
0,-644,15868,511,578,-78
0,-372,15708,511,605,-104
0,-348,15716,511,587,-110
0,-340,15684,511,557,-88
0,-356,15720,511,611,-81
0,-360,15704,511,562,-110
0,-320,15628,511,540,-57
0,-336,15640,511,609,-88
0,-328,15684,511,583,-60
0,-360,15644,511,562,-125
0,-376,15708,511,590,-85
0,-428,15888,256,593,-84
0,-388,15648,511,562,-124
0,-352,15896,256,566,-95
0,-416,15916,256,559,-107
0,-368,15644,511,583,-91
0,-424,15928,256,580,-86
0,-348,15940,256,592,-113
0,-384,15896,256,623,-104
0,-312,15684,511,557,-113
0,-332,15700,511,559,-98
0,-372,15652,511,577,-76
0,-360,15680,511,569,-125
0,-388,15640,511,567,-115
0,-424,15948,256,559,-69
0,-312,15940,256,590,-88
0,-408,15684,511,575,-76
0,-328,15636,511,575,-96
0,-336,15648,511,568,-106
0,-376,15680,511,605,-88
0,-420,15648,511,573,-66
0,-352,15680,511,558,-100
0,-364,15872,256,564,-73
0,-328,15976,256,582,-79
0,-304,15956,256,559,-80
0,-364,15668,511,554,-90
0,-316,15632,511,558,-79
0,-372,15628,511,603,-82
0,-652,16096,256,584,-90
0,-420,15912,256,578,-85
0,-372,15928,256,568,-130
0,-380,15680,511,591,-96
0,-632,15848,511,565,-121
0,-384,15940,256,550,-88
0,-440,15908,256,562,-81
0,-380,15680,511,572,-81
0,-368,15976,256,563,-95
0,-388,15900,256,575,-97
0,-392,15896,256,565,-72
0,-368,15664,511,602,-81
0,-352,15672,511,580,-127
0,-404,15960,256,601,-107
0,-388,15680,511,557,-78
0,-348,15900,256,561,-90
0,-304,15656,511,552,-117
0,-360,15636,511,572,-106
0,-348,15664,511,594,-70
0,-404,15692,511,574,-100
0,-336,15660,511,552,-121
0,-420,15900,256,558,-110
0,-308,15640,511,566,-121
0,-356,15924,256,588,-106
0,-368,15676,511,569,-107
0,-368,15652,511,565,-64
0,-376,15656,511,584,-120
0,-380,15676,511,583,-111
0,-320,15632,511,578,-89
0,-380,15640,511,586,-111
0,-356,15892,256,586,-95
0,-364,15696,511,594,-84
0,-412,15676,511,567,-97
0,-408,15664,511,578,-92
0,-360,15648,511,563,-49
0,-380,15924,256,577,-69
0,-396,15664,511,588,-125
0,-388,15712,511,587,-89
0,-400,15900,256,564,-87
0,-564,15844,511,564,-96
0,-304,15660,511,564,-96
0,-388,15640,511,582,-105
0,-364,15684,511,592,-98
0,-380,15724,511,587,-93
0,-392,15652,511,590,-112
0,-296,15912,256,584,-97
0,-340,15668,511,568,-120
0,-360,15664,511,567,-128
0,-328,15972,256,556,-86
0,-400,15924,256,591,-106
0,-336,15880,256,574,-74
0,-628,16116,256,556,-76
0,-376,15960,256,580,-74
0,-320,15944,256,584,-76
0,-348,15900,256,568,-95
0,-372,15696,511,596,-37
0,-296,15940,256,585,-82
0,-420,15728,511,573,-107
0,-336,15964,256,571,-105
0,-324,15932,256,578,-93
0,-364,15668,511,608,-60
0,-380,15700,511,580,-99
0,-392,15688,511,540,-75
0,-356,16036,256,588,-85
0,-400,15704,511,619,-109
0,-356,15996,256,598,-117
0,-344,15620,511,590,-66
0,-396,15664,511,573,-68
0,-364,15660,511,589,-71
0,-368,15632,511,576,-123
0,-336,15928,256,601,-74
0,-384,15652,511,592,-102
0,-336,15712,511,587,-86
0,-424,15916,256,556,-101
255,-332,15620,511,571,-86
0,-392,15684,511,552,-97
0,-400,15644,511,580,-70
0,-604,15868,511,596,-113
0,-320,15624,511,575,-89
0,-300,15724,511,573,-109
0,-376,15644,511,580,-68
0,-356,15664,511,610,-95
0,-400,15676,511,592,-93
0,-336,15936,256,564,-89
0,-600,15864,511,560,-102
0,-288,15700,511,570,-74
0,-364,15636,511,558,-97
0,-328,15664,511,559,-83
0,-324,15896,256,580,-108
0,-316,15668,511,576,-105
0,-364,15932,256,551,-89
0,-364,15880,256,583,-113
0,-348,15720,511,580,-119
0,-420,15672,511,554,-84
0,-432,15696,511,602,-82
0,-364,15912,256,579,-100
0,-324,15956,256,577,-117
0,-400,15924,256,621,-62
0,-348,15788,256,578,-98
0,-360,15684,511,550,-109
0,-384,15676,511,574,-101
0,-556,15868,511,579,-103
0,-328,15676,511,596,-109
0,-400,15692,511,564,-78
0,-388,15676,511,569,-106
0,-340,15892,256,601,-99
0,-676,16116,256,563,-106
0,-344,15640,511,596,-93
0,-352,15944,256,566,-88
0,-392,15928,256,548,-56
0,-356,15656,511,584,-93
0,-348,15656,511,563,-91
0,-320,15644,511,578,-87
0,-320,15628,511,584,-101
0,-596,15868,511,597,-121
0,-360,15640,511,594,-128
0,-360,15684,511,546,-88
0,-372,15920,256,585,-87
0,-400,15684,511,581,-102
0,-296,15668,511,578,-69
0,-404,15920,256,590,-96
0,-368,15684,511,569,-120
0,-344,15696,511,564,-117
0,-336,15620,511,584,-98
0,-356,15652,511,563,-98
0,-356,15712,511,559,-102
0,-388,15648,511,554,-114
0,-360,15904,256,593,-93
0,-360,15720,511,552,-126
0,-328,15948,256,560,-112
0,-336,15896,256,600,-109
0,-320,15872,256,569,-101
0,-340,15976,256,547,-90
0,-324,15644,511,579,-77
0,-312,15952,256,572,-92
0,-388,15664,511,589,-103
255,-372,15664,511,562,-102
0,-360,15732,511,570,-122
0,-312,16012,256,571,-75
0,-412,15908,256,558,-86
0,-352,15904,256,562,-79
0,-384,15664,511,555,-81
255,-624,16120,256,568,-101
0,-380,15684,511,568,-83
0,-320,15996,256,568,-112
0,-340,15936,256,560,-117
0,-336,15936,256,570,-80
0,-352,15944,256,568,-97
0,-356,15676,511,595,-90
0,-404,15644,511,586,-93
0,-368,15916,256,584,-96
255,-372,15624,511,561,-77
0,-396,15676,511,607,-96
0,-284,15896,256,580,-92
0,-364,15664,511,593,-97
0,-620,16116,256,540,-128
0,-368,15892,256,576,-91
0,-348,15628,511,572,-63
0,-548,16112,256,591,-90
0,-380,15624,511,562,-92
0,-356,15648,511,544,-59
0,-348,15676,511,558,-79
0,-352,15948,256,592,-104
0,-324,15696,511,562,-112
0,-352,15640,511,583,-78
0,-360,15968,256,583,-100
255,-360,15700,511,566,-90
0,-360,15636,511,589,-91
0,-328,15684,511,588,-99
0,-316,15712,511,573,-67
0,-316,15716,511,583,-95
0,-352,15920,256,572,-101
0,-624,15868,511,574,-93
0,-380,15720,511,582,-90
0,-404,15620,511,556,-111
0,-448,15936,256,550,-102
0,-364,15692,511,566,-95
0,-604,15844,511,597,-69
0,-384,15680,511,589,-127
0,-348,15684,511,564,-74
0,-340,15940,256,553,-112
0,-384,15708,511,577,-71
0,-292,15632,511,555,-86
0,-444,15900,256,588,-95
0,-408,15948,256,602,-111
255,-396,15736,511,557,-97
0,-308,15940,256,574,-89
0,-332,15904,256,573,-90
0,-576,16116,256,574,-91
0,-340,15872,256,581,-84
0,-344,15628,511,574,-91
0,-384,15620,511,600,-80
0,-348,15636,256,571,-106
0,-444,15928,256,559,-110
0,-368,15672,511,557,-80
0,-364,15892,256,586,-72
0,-668,15864,511,572,-104
0,-324,15928,256,557,-107
0,-380,15928,256,567,-103
0,-372,15684,511,603,-98
0,-356,15640,511,559,-88
0,-428,15716,511,586,-91
0,-364,15932,256,597,-69
0,-388,15616,511,589,-92
0,-412,15924,256,588,-103
0,-340,15908,256,561,-82
0,-348,15952,256,569,-71
0,-404,15660,511,555,-79
0,-304,15932,256,581,-88
0,-372,15672,511,566,-79
0,-360,15684,511,602,-100
0,-388,15916,256,590,-120
0,-336,15920,256,564,-92
0,-372,15636,511,562,-112
0,-380,15696,511,567,-102
0,-388,15740,511,569,-94
0,-324,15648,511,578,-87
0,-320,15700,511,588,-81
0,-396,15912,256,583,-88
0,-352,15684,511,594,-89
0,-596,15864,511,572,-105
0,-324,15676,511,580,-58
255,-396,15648,511,563,-109
0,-344,15692,511,593,-71
0,-336,15684,511,574,-114
0,-320,15960,256,584,-94
0,-356,15932,256,541,-89
0,-388,15668,511,576,-93
0,-356,15656,511,555,-124
0,-368,15916,256,575,-77
0,-328,15644,511,558,-115
0,-364,15680,511,574,-73
0,-336,15636,511,579,-80
0,-364,15616,511,593,-69
0,-316,15680,511,561,-85
0,-312,15704,511,586,-117
0,-388,15900,256,540,-104
0,-372,15648,511,599,-82
0,-344,15888,256,588,-108
0,-368,15928,256,579,-95
0,-344,15652,511,564,-104
0,-312,15884,256,554,-120
0,-332,15924,256,561,-90
0,-276,15668,511,593,-94
0,-336,15964,256,580,-74
0,-368,15684,511,566,-96
0,-356,15680,511,578,-67
255,-392,15924,256,566,-98
0,-640,15856,511,552,-115
0,-420,15632,511,584,-101
0,-672,16124,256,585,-94
0,-340,15928,256,593,-106
0,-316,15932,256,564,-121
0,-340,15944,256,573,-92
0,-360,15708,511,570,-90
0,-324,15920,256,604,-101
0,-312,15892,256,589,-80
0,-356,15936,256,583,-112
0,-332,15668,511,555,-96
255,-324,15680,511,563,-88
255,-372,15660,511,571,-82
0,-364,15704,511,585,-145
0,-328,15904,256,568,-99
0,-288,15936,256,557,-112
0,-276,15652,511,584,-99
0,-308,15932,256,581,-94
0,-312,15616,511,561,-90
0,-304,15628,511,593,-87
0,-364,15900,256,570,-73
0,-340,15908,256,576,-129
0,-560,15844,511,582,-95
0,-436,15928,256,573,-108
0,-380,15888,256,570,-96
0,-348,15704,511,596,-103
0,-380,15664,511,592,-90
0,-356,15916,256,585,-85
0,-348,15880,256,565,-91
0,-304,15680,511,598,-107
0,-368,16000,256,589,-85
256,-512,15912,256,566,-103
0,-368,15684,511,576,-112
0,-316,15624,511,575,-69
0,-312,15660,511,578,-121
255,-364,15672,511,586,-90
0,-396,15652,511,565,-59
0,-340,15924,256,583,-78
0,-408,15644,511,573,-125
255,-620,15840,511,597,-111
0,-384,15956,256,584,-73
0,-368,15936,256,550,-79
0,-324,15624,511,567,-118
0,-348,15664,511,583,-123
0,-416,15920,256,573,-76
0,-352,15624,511,564,-107
0,-392,15688,511,571,-112
255,-376,15616,511,556,-83
0,-352,15656,511,564,-86
255,-412,15684,511,618,-102
0,-308,15668,511,577,-80
0,-412,15872,256,572,-97
0,-352,15620,511,603,-88
0,-384,15652,511,562,-92
0,-340,15940,256,581,-81
0,-328,15968,256,573,-82
0,-308,15700,511,577,-105
255,-332,15624,511,555,-110
0,-364,15904,256,568,-108
0,-316,15976,256,589,-86
0,-356,15928,256,580,-135
0,-360,15960,256,599,-110
0,-336,15672,511,580,-88
0,-368,15700,511,568,-81
0,-340,15940,256,576,-72
0,-332,15928,256,552,-79
0,-324,15668,511,575,-97
255,-360,15660,511,568,-91
0,-348,15652,511,568,-95
0,-360,15960,256,569,-106
0,-376,15940,256,575,-99
0,-380,15648,511,599,-95
0,-316,15916,256,584,-103
0,-332,15648,511,562,-111
0,-376,15936,256,569,-79
0,-376,15964,256,595,-77
0,-380,15932,256,579,-98
0,-368,15700,511,559,-90
0,-360,15728,511,590,-103
0,-328,15900,256,580,-94
0,-344,15924,256,581,-67
0,-336,15668,511,545,-115
0,-368,15640,511,580,-88
0,-312,15912,256,581,-81
0,-320,15660,511,576,-99
0,-360,15740,511,568,-122
0,-336,15656,511,596,-92
0,-344,15912,256,572,-111
0,-408,15696,511,554,-81
0,-324,15628,511,598,-51
0,-360,15676,511,581,-73
0,-380,15696,511,576,-114
0,-340,15904,256,575,-75
0,-404,15732,511,589,-95
0,-368,15660,511,582,-98
0,-640,15868,256,561,-93
0,-360,15664,511,570,-73
0,-648,15844,511,569,-113
0,-444,15660,511,578,-78
0,-360,15888,256,587,-124
0,-352,15680,511,570,-74
0,-352,15912,256,570,-78
255,-344,15912,511,576,-113
0,-352,15672,511,556,-120
0,-320,15620,511,563,-102
0,-332,15912,256,558,-120
0,-380,15648,511,580,-88
0,-340,15872,256,556,-98
255,-344,15688,511,598,-95
0,-328,15956,256,560,-79
0,-328,15684,511,595,-109
255,-320,15960,256,586,-73
0,-364,15904,256,583,-99
0,-328,15984,256,574,-68
0,-368,15700,511,571,-105
0,-336,15668,511,555,-95
0,-364,15724,511,545,-93
0,-364,15672,511,570,-121
0,-328,15692,511,599,-110
0,-344,15912,256,567,-71
0,-408,15660,511,561,-109
0,-408,15668,511,582,-87
0,-368,15960,256,573,-78
0,-324,15724,511,559,-91
0,-348,15676,511,574,-91
0,-416,15928,256,605,-100
0,-344,15716,511,535,-63
0,-412,15668,511,587,-112
0,-352,15680,511,570,-95
0,-432,15928,256,587,-118
0,-332,15696,511,566,-88
0,-396,15896,256,572,-68
255,-368,15896,256,580,-82
255,-416,15636,511,559,-108
0,-388,15932,256,570,-72
0,-376,15668,511,567,-102
0,-348,15940,256,575,-102
0,-404,15936,256,576,-119
0,-332,15700,511,557,-69
0,-348,15928,256,570,-88
0,-380,15672,511,586,-59
0,-348,15960,256,562,-90
0,-348,15672,511,543,-94
0,-368,15956,256,577,-80
0,-340,15664,511,584,-74
0,-412,15880,256,581,-85
0,-308,15704,511,575,-76
0,-324,15896,256,574,-100
0,-388,15668,511,574,-127
0,-376,15896,256,591,-95
0,-384,15684,511,569,-82
0,-424,15676,511,580,-85
0,-376,15680,511,562,-92
0,-376,15964,256,568,-50
0,-644,16112,256,573,-107
0,-324,15916,256,557,-97
0,-356,15920,256,589,-116
0,-336,15652,511,587,-103
0,-384,15916,256,575,-110
0,-384,15692,511,576,-104
0,-344,15904,256,574,-99
0,-400,15892,256,572,-70
255,-348,15680,511,560,-108
0,-408,15872,256,585,-66
0,-360,15924,256,572,-104
255,-348,15672,511,592,-104
0,-360,15664,511,583,-89
0,-352,15656,511,576,-113
0,-644,16100,256,584,-71
0,-352,15652,511,570,-90
0,-396,15632,511,582,-91
0,-344,15924,256,576,-121
0,-400,15628,511,585,-91
0,-352,15724,511,569,-121
0,-372,15888,256,589,-72
0,-376,15644,511,608,-104
0,-384,15616,511,564,-94
0,-384,15624,511,567,-91
0,-332,15664,511,579,-85
0,-364,15956,256,571,-93
0,-340,15900,256,563,-115
0,-432,15668,511,565,-116
0,-332,16008,256,568,-90
255,-416,15724,511,573,-93
0,-324,15676,511,587,-71
0,-324,15984,256,559,-84
0,-372,15684,511,601,-98
0,-300,15680,511,580,-120
0,-376,15704,511,579,-80
0,-336,15688,511,592,-81
0,-356,15980,256,575,-122
0,-312,15696,511,581,-67
0,-400,15720,511,566,-98
0,-312,15672,511,577,-113
0,-376,15652,511,613,-93
0,-352,15692,511,569,-85
0,-404,15692,511,589,-72
0,-408,15924,256,563,-86
0,-388,15656,511,600,-99
0,-380,15712,511,595,-107
0,-404,15684,511,556,-77
255,-660,16124,256,595,-97
0,-408,15672,511,609,-95
0,-368,15672,511,574,-67
0,-372,15928,256,581,-78
0,-332,15736,511,574,-79
0,-388,15892,256,588,-75
0,-412,15716,511,573,-74
0,-284,15672,511,601,-91
0,-364,15964,256,578,-119
0,-368,15668,511,549,-110
0,-344,15704,511,562,-49
0,-384,15916,256,570,-66
0,-312,15676,511,574,-135
0,-380,15716,511,580,-74
0,-356,15668,511,570,-112
0,-284,15704,511,572,-121
0,-296,15684,511,571,-86
0,-360,15688,511,536,-99
0,-364,15924,256,559,-71
0,-376,15668,511,569,-115
0,-356,15944,256,560,-103
0,-372,15916,256,599,-118
0,-372,15684,511,569,-90
0,-408,15652,511,571,-109
0,-392,15664,511,583,-52
0,-376,15660,511,562,-88
255,-328,15652,511,531,-113
0,-368,15664,511,595,-93
0,-672,15860,511,597,-83
0,-316,15620,511,592,-83
0,-356,15936,256,555,-74
0,-392,15652,511,572,-79
0,-352,15672,511,600,-79
0,-356,15912,256,583,-112
0,-316,15628,256,580,-87
0,-344,15664,511,560,-75
0,-412,15936,256,579,-83
255,-396,15640,511,572,-99
0,-372,15676,511,589,-120
0,-388,15652,256,567,-84
255,-376,15668,511,544,-110
0,-360,15680,511,584,-84
255,-364,15940,256,557,-119
255,-604,15856,511,591,-93
0,-376,15684,256,572,-81
0,-368,15660,511,551,-76
0,-336,15620,511,585,-88
0,-344,15700,511,584,-97
0,-356,15616,511,560,-74
0,-356,15876,256,579,-91
0,-356,15660,511,581,-109
0,-632,16124,256,576,-92
255,-336,15652,511,588,-98
0,-388,15912,256,562,-117
255,-380,15932,256,567,-80
0,-608,16116,256,559,-89
0,-312,15692,511,552,-67
0,-372,15992,256,581,-80
0,-388,15624,511,585,-90
0,-372,15624,511,558,-86
0,-348,15676,511,565,-92
0,-344,15692,511,586,-100
0,-312,15632,511,581,-87
0,-340,15960,256,547,-110
0,-320,15972,256,579,-77
0,-348,15936,256,576,-75
255,-384,15676,511,588,-74
0,-376,15916,256,570,-73
0,-344,15684,511,568,-115
0,-340,15932,256,596,-99
0,-340,15640,511,609,-85
0,-416,15620,511,580,-104
0,-356,15908,256,575,-115
0,-388,15648,511,566,-88
0,-312,15616,511,579,-100
0,-296,15884,256,570,-105
0,-312,15988,256,555,-110
0,-424,15680,511,579,-104
0,-388,15924,256,565,-126
0,-332,15968,256,589,-103
0,-400,15664,511,574,-130
0,-420,15620,511,580,-105
0,-360,15652,511,548,-50
0,-396,15632,511,593,-78
0,-380,15916,256,575,-96
0,-332,15680,511,562,-113
0,-356,15980,256,580,-79
0,-352,15880,256,567,-101
0,-340,15668,511,574,-76
0,-320,15652,511,595,-125
0,-340,15660,511,605,-138
0,-348,15664,511,559,-74
0,-356,15660,511,543,-68
0,-308,15660,511,578,-96
0,-316,15684,511,597,-90
0,-376,15688,511,542,-103
0,-412,15640,256,575,-77
0,-336,15708,511,575,-109
255,-320,15696,511,604,-73
0,-380,15680,511,583,-112
0,-364,15672,511,574,-102
0,-344,15928,256,594,-83
0,-356,15720,256,568,-108
0,-344,15932,256,587,-106
0,-352,15628,511,564,-85
0,-344,15928,256,558,-85
0,-372,15684,511,569,-86
0,-328,15684,511,560,-89
0,-364,15748,511,568,-94
0,-340,15956,256,568,-97
255,-372,15960,256,546,-97
0,-368,15748,511,521,-75
0,-328,15656,511,562,-109
0,-356,15904,256,601,-102
255,-644,16116,256,572,-95
0,-632,15860,511,587,-77
0,-324,15912,256,578,-109
0,-332,15944,256,598,-103
0,-348,15664,511,571,-92
0,-376,15668,511,562,-77
0,-348,15644,511,604,-84
0,-396,15628,511,566,-123
0,-320,15680,511,580,-117
0,-340,15904,256,568,-83
0,-360,15964,256,596,-98
0,-396,15660,511,590,-98
0,-324,15680,511,565,-90
0,-372,15896,256,600,-124
0,-352,15664,511,544,-101
0,-428,15648,511,581,-88
0,-408,15680,511,580,-79
0,-384,15936,256,583,-104
0,-316,15928,256,563,-57
0,-340,15928,256,569,-89
0,-444,15640,511,593,-97
255,-348,15944,256,592,-65
0,-356,15692,511,581,-100
0,-356,15900,256,545,-101
0,-316,15652,511,577,-95
0,-316,15916,256,556,-89
0,-340,15944,256,599,-108
0,-400,15648,511,569,-68
0,-404,15696,511,578,-127
0,-396,15684,511,595,-101
0,-384,15704,511,561,-76
0,-404,15656,511,570,-108
0,-352,15692,511,545,-86
0,-340,15640,511,556,-122
0,-396,15940,256,577,-90
0,-360,15968,256,571,-116
0,-368,15620,256,569,-136
0,-360,15660,511,584,-115
0,-312,15672,511,588,-100
0,-404,15692,511,593,-114
0,-324,15656,511,570,-94
0,-612,15868,256,548,-108
0,-376,15896,256,588,-101
255,-356,15684,511,584,-62
0,-332,15968,256,562,-90
0,-372,15944,256,589,-95
0,-340,15644,511,578,-88
0,-340,15696,511,561,-68
0,-380,15724,256,605,-127
0,-396,15680,511,571,-96
0,-384,15640,511,587,-117
0,-288,15896,256,564,-86
0,-332,15652,511,568,-105
0,-376,15924,256,562,-109
0,-408,15900,256,584,-90
0,-368,15900,256,586,-72
0,-344,15944,256,573,-95
0,-352,15640,511,573,-112
255,-368,15672,511,552,-91
0,-356,15668,256,600,-104
0,-352,15696,256,575,-91
0,-384,15668,511,568,-75
0,-356,15676,511,577,-92
0,-396,15648,511,592,-106
0,-420,15664,256,574,-111
0,-396,15700,511,550,-130
0,-324,15928,256,583,-62
0,-344,15640,511,585,-121
0,-372,15952,256,566,-109
0,-336,15956,256,583,-109
0,-408,15944,256,593,-82
0,-344,15676,511,557,-74
0,-344,15692,511,565,-97
0,-352,15652,511,578,-82
0,-368,15912,256,570,-88
0,-372,15620,256,579,-81
0,-388,15664,511,548,-119
0,-368,15728,511,579,-104
0,-328,15704,511,561,-123
0,-376,15920,256,586,-90
0,-344,15652,511,558,-119
0,-428,15672,511,549,-83
0,-360,15660,511,581,-97
0,-332,15684,511,577,-107
0,-316,15892,256,597,-128
0,-384,15692,511,582,-70
0,-336,15916,256,580,-77
255,-280,15912,256,583,-78
0,-372,15680,511,585,-94
0,-340,15660,511,573,-110
0,-360,15704,511,584,-102
0,-360,15932,256,581,-78
0,-348,15632,511,588,-120
0,-392,15664,511,565,-87
0,-360,15716,511,591,-92
0,-320,15688,511,577,-111
0,-380,15924,256,581,-95
0,-312,15668,511,581,-79
0,-416,15696,511,548,-106
0,-352,15936,256,564,-107
0,-332,15692,511,568,-86
0,-344,15676,511,614,-108
0,-364,15624,511,581,-104
0,-344,15616,511,609,-102
0,-280,15944,256,577,-111
0,-312,15636,511,572,-102
0,-352,15716,511,593,-76
0,-636,15852,511,585,-93
0,-384,15640,511,578,-77
0,-388,15884,256,602,-141
0,-592,15868,511,535,-109
0,-344,15940,256,575,-78
0,-404,15680,511,601,-97
0,-364,15664,511,565,-87
0,-364,15636,511,562,-93
0,-308,15912,256,551,-83
0,-372,15680,511,548,-84
0,-336,15716,511,580,-115
0,-632,15868,511,581,-87
0,-328,15888,256,564,-76
0,-364,15680,511,559,-108
0,-344,15624,511,599,-85
0,-348,15676,511,593,-112
0,-384,15636,511,573,-64
0,-360,15664,511,576,-102
0,-380,15928,256,586,-77
0,-336,15684,511,575,-85
0,-340,15948,256,571,-88
0,-404,15692,256,573,-126
255,-344,15964,256,553,-101
0,-320,15720,511,570,-74
255,-384,15744,511,580,-130
0,-360,15652,511,594,-39
0,-360,15904,256,568,-109
0,-324,15676,511,592,-87
0,-404,15676,511,577,-84
0,-312,15924,256,572,-117
0,-564,16112,256,597,-80
0,-328,15908,256,544,-99
0,-376,15936,256,574,-110
0,-388,15660,511,561,-83
255,-676,15852,511,575,-88
0,-424,15896,256,589,-110
0,-368,15696,511,592,-95
0,-376,15624,511,596,-99
0,-340,15636,511,581,-88
0,-340,15632,511,582,-79
0,-332,15968,256,533,-117
0,-352,15716,511,584,-110
0,-380,15924,256,590,-121
0,-348,15948,256,574,-110
0,-348,15668,511,574,-100
0,-332,15676,511,589,-87
0,-652,16116,256,586,-75
0,-332,15676,511,552,-60
0,-396,15892,256,562,-111
0,-332,15720,511,586,-71
0,-336,15968,256,578,-67
0,-316,15640,511,570,-107
0,-284,15688,511,567,-60
0,-372,15660,511,561,-114
0,-368,15660,511,591,-93
0,-368,15948,256,556,-98
0,-608,15864,511,572,-110
0,-360,15660,511,564,-92
0,-372,15628,511,560,-108
0,-356,15696,511,560,-82
0,-388,15692,511,588,-103
0,-372,15920,256,543,-89
0,-316,15664,511,562,-113
0,-372,15928,256,598,-97
0,-380,15884,256,577,-67
0,-372,15936,256,588,-80
0,-332,15940,256,590,-96
0,-336,15712,511,566,-57
0,-412,15668,511,549,-93
0,-332,15660,511,588,-94
0,-372,15680,511,588,-75
0,-356,15624,511,575,-91
0,-348,15660,511,575,-92
0,-380,15640,511,584,-112
0,-324,15680,511,576,-106
0,-384,15660,511,587,-84
0,-320,15896,256,571,-91
0,-364,15664,511,567,-101
0,-372,15668,511,597,-150
0,-460,15924,256,585,-93
0,-608,15856,511,565,-124
0,-628,16104,256,594,-85
0,-620,15868,511,537,-99
0,-368,15672,511,575,-100
0,-296,15696,511,554,-86
0,-396,15632,511,591,-80
0,-360,15648,511,554,-89
255,-356,15652,511,564,-112
0,-344,15684,511,595,-120
0,-356,15644,511,563,-94
0,-352,15908,256,556,-102
0,-360,15972,256,589,-91
0,-424,15632,511,570,-110
255,-332,15644,511,553,-101
0,-340,15944,256,585,-65
255,-380,15928,256,602,-94
0,-412,15952,256,563,-114
0,-384,15672,511,563,-84
0,-364,15916,256,577,-109
0,-340,15740,511,561,-98
0,-608,15864,511,567,-88
0,-376,15652,511,569,-81
0,-372,15656,511,571,-80
0,-408,15912,256,595,-107
0,-360,15660,511,583,-94
0,-392,15660,511,564,-93
0,-344,15908,256,588,-112
0,-372,15704,511,567,-55
0,-344,15680,511,567,-86
0,-372,15920,256,554,-84
0,-356,15904,256,570,-92
255,-384,15904,256,562,-99
0,-328,15948,256,563,-73
0,-332,15716,511,579,-101
0,-312,15660,511,570,-110
0,-368,15656,511,598,-69
0,-336,15624,511,566,-140
0,-368,15956,256,537,-98
0,-384,15644,511,575,-93
0,-360,15884,256,576,-104
0,-392,15652,511,574,-85
0,-424,15728,511,582,-93
0,-384,15684,511,578,-146
0,-364,15964,256,560,-119
0,-360,15632,511,597,-79
0,-620,15868,256,565,-85
0,-328,15664,511,577,-91
255,-344,15984,256,544,-122
0,-300,15648,511,591,-64
0,-364,15684,511,549,-114
0,-356,15916,256,548,-123
0,-352,15636,511,589,-115
0,-300,15652,511,596,-90
0,-360,15676,511,570,-66
255,-424,15908,256,583,-79
0,-384,15660,511,557,-107
0,-364,15680,511,579,-71
0,-320,15660,511,576,-71
0,-296,15872,256,573,-99
0,-340,15900,256,603,-96
0,-332,15628,511,579,-92
0,-368,15628,511,547,-87
0,-380,15896,256,573,-98
0,-392,15624,511,567,-95
255,-396,15652,511,565,-94
0,-328,15880,256,585,-110
0,-292,15876,256,576,-101
0,-368,15712,511,562,-106
0,-336,15676,511,547,-88
0,-372,15668,511,568,-75
0,-352,15904,256,587,-85
0,-404,15932,256,563,-111
0,-360,15940,256,581,-76
0,-372,15916,256,563,-82
0,-616,15860,511,580,-102
0,-408,15628,511,567,-83
0,-324,15660,511,625,-87
0,-372,15924,256,582,-90
0,-348,15972,256,592,-62
0,-392,15640,511,569,-84
0,-380,15700,511,581,-135
0,-600,16112,256,589,-124
0,-360,15644,511,572,-104
0,-344,16000,256,586,-119
0,-292,15716,511,590,-101
0,-308,15668,511,576,-89
0,-328,15912,256,561,-101
0,-348,15616,511,570,-93
0,-344,15900,256,546,-57
0,-352,15624,511,572,-100
0,-392,15636,511,578,-126
0,-424,15936,256,592,-98
0,-400,15896,256,579,-106
255,-272,15664,511,563,-96
0,-388,15692,511,601,-82
0,-392,15664,511,558,-113
0,-364,15688,511,559,-148
0,-376,15680,511,559,-72
255,-344,15664,511,555,-102
255,-356,15916,256,566,-115
0,-304,15952,256,537,-103
0,-612,15864,511,601,-79
0,-424,15680,511,583,-73
0,-324,15708,511,552,-69
0,-376,15672,511,574,-136
255,-352,15920,256,576,-84
0,-352,15916,256,569,-126
0,-392,15620,511,579,-93
0,-336,15876,256,589,-99
0,-336,15692,511,573,-65
255,-396,15924,256,568,-105
0,-384,15676,511,553,-132
0,-352,15896,256,578,-118
0,-428,15940,256,553,-96
255,-412,15664,511,564,-126
0,-344,15648,511,577,-92
0,-368,15664,511,554,-102
0,-360,15936,256,572,-85
0,-368,15680,511,578,-98
0,-404,15920,256,565,-99
0,-360,15932,256,565,-85
0,-364,15932,256,573,-92
0,-344,15652,511,596,-94
0,-356,15708,511,579,-118
0,-332,15680,511,582,-110
0,-336,15880,256,575,-84
0,-372,15916,256,603,-74
0,-376,15660,511,580,-94
255,-364,15908,256,584,-101
0,-360,15924,256,567,-103
0,-300,15680,511,561,-84
0,-304,15640,511,562,-110
0,-348,15672,511,586,-108
0,-364,15644,511,577,-98
0,-400,15664,511,575,-93
0,-376,15712,511,560,-87
0,-368,15708,511,574,-107
0,-348,15932,256,572,-115
0,-376,15884,256,577,-85
0,-328,15896,256,548,-84
0,-292,15964,256,560,-76
0,-316,15672,511,586,-66
0,-636,15864,511,592,-89
0,-312,15644,511,553,-113
0,-404,15704,511,578,-103
0,-460,15696,511,575,-120
0,-348,15900,256,554,-92
0,-316,15680,511,552,-103
0,-332,15652,511,570,-87
0,-368,15632,511,585,-102
0,-384,15924,256,591,-93
0,-356,15676,511,553,-102
0,-324,15936,256,569,-69
0,-348,15896,256,589,-87
0,-364,15688,511,595,-104
0,-348,15932,256,564,-108
0,-316,15924,256,567,-93
0,-364,15708,511,579,-93
0,-296,15660,511,579,-131
0,-408,15644,511,547,-92
0,-352,15644,511,567,-97
0,-372,15924,256,596,-95
0,-360,15908,256,556,-132
0,-360,15688,511,576,-109
0,-356,15680,511,562,-112
0,-404,15892,256,586,-98
0,-360,15652,511,582,-98
0,-312,15664,256,585,-83
0,-356,15644,511,569,-55
0,-364,15944,256,562,-78
0,-328,15736,511,564,-113
255,-624,16124,256,587,-60
0,-364,15620,511,575,-73
0,-300,15700,511,573,-92
0,-356,15904,256,581,-104
0,-360,15660,511,564,-106
0,-340,15640,511,579,-97
0,-368,15672,511,584,-112
0,-340,15900,256,569,-87
0,-284,15700,511,600,-95
0,-352,15648,511,551,-111
255,-380,15644,511,574,-103
0,-396,15908,256,603,-98
0,-376,15660,511,589,-135
0,-312,15952,256,589,-82
0,-380,15980,256,584,-73
0,-376,15648,511,575,-83
0,-372,15644,511,570,-89
0,-360,15716,511,584,-98
255,-380,15888,256,570,-109
0,-344,15912,256,590,-82
0,-360,15888,256,574,-73
0,-296,15920,256,575,-79
0,-368,15668,511,573,-103
0,-384,15696,511,576,-90
0,-408,15896,256,578,-69
0,-372,15676,511,582,-110
0,-296,15660,511,570,-82
0,-360,15652,511,576,-75
0,-376,15976,256,572,-97
0,-436,15724,511,573,-91
0,-384,15672,511,583,-105
0,-368,15636,511,579,-95
255,-372,15652,511,591,-114
0,-408,15896,256,568,-111
0,-392,15680,511,585,-91
0,-356,15680,511,558,-84
0,-352,15972,256,549,-93
0,-344,15712,511,595,-75
0,-344,15656,511,569,-89
0,-296,15920,256,582,-78
0,-608,16108,256,564,-110
0,-416,15940,256,577,-107
0,-400,15924,256,565,-80
0,-332,15656,511,608,-96
0,-332,15720,511,563,-101
0,-660,15868,511,586,-104
0,-376,15908,256,584,-77
0,-404,15976,256,565,-98
0,-340,15668,511,574,-84
0,-312,15616,511,557,-97
0,-360,15928,256,591,-89
0,-348,15656,511,593,-99
0,-336,15684,511,588,-127
0,-356,15712,511,576,-86
0,-416,15660,256,544,-103
0,-336,15616,511,602,-91
0,-356,15892,256,598,-94
0,-332,15912,256,584,-118
0,-384,15924,256,573,-97
0,-340,15712,511,565,-113
0,-340,15928,256,561,-96
0,-400,15720,511,564,-56
0,-364,15976,256,607,-82
0,-376,15928,256,590,-86
0,-344,15652,511,562,-97
0,-288,15664,511,572,-75
0,-348,15672,511,587,-88
0,-380,15932,256,577,-101
0,-360,15680,511,580,-101
0,-380,15652,511,591,-101
0,-276,15888,256,574,-100
0,-372,15632,511,571,-128
0,-376,15892,256,557,-82
0,-368,15732,511,588,-60
0,-400,15748,511,567,-100
0,-372,15964,256,581,-121
0,-364,15940,256,567,-98
0,-352,15692,511,593,-80
0,-336,15948,256,596,-104
0,-416,15676,511,559,-97
0,-412,15632,511,587,-84
0,-380,15676,511,591,-105
0,-360,15924,256,568,-81
0,-356,15652,511,552,-71
0,-356,15644,511,575,-93
0,-340,15916,256,578,-81
0,-352,15644,511,568,-77
255,-424,15656,511,578,-81
256,-504,15648,511,587,-119
0,-424,15696,511,560,-125
0,-344,15680,511,573,-82
0,-348,15936,256,572,-108
0,-376,15988,256,594,-96
0,-352,15724,511,596,-92
0,-312,15648,511,600,-103
0,-352,15696,511,602,-96
0,-392,15660,511,586,-96
0,-568,15868,511,576,-113
0,-384,15964,256,584,-90
0,-352,15896,256,583,-107
0,-364,15672,511,583,-135
0,-384,15972,256,573,-92
0,-356,15920,256,568,-70
0,-376,15664,511,564,-89
0,-376,15664,511,578,-90
0,-380,15948,256,581,-113
0,-372,15928,256,543,-63
0,-396,15652,511,587,-68
0,-628,15868,511,570,-99
0,-324,15692,511,574,-123
0,-332,15960,256,582,-98
0,-420,15676,511,578,-90
0,-328,15660,511,586,-70
0,-384,15688,511,605,-93
255,-360,15640,511,573,-101
0,-368,15660,511,594,-94
0,-340,15888,256,578,-102
255,-388,15972,256,568,-71
0,-412,15684,256,543,-66
0,-328,15620,511,595,-57
0,-636,16124,256,582,-101
0,-304,15968,256,574,-71
0,-408,15616,511,577,-94
0,-612,16124,256,584,-66
0,-432,15692,511,584,-79
0,-380,15668,511,590,-117
0,-372,15964,256,565,-114
0,-364,15660,511,582,-88
0,-436,15972,256,582,-102
0,-364,15932,256,565,-100
0,-368,15640,511,595,-102
0,-332,15948,256,587,-84
0,-344,15684,511,601,-97
0,-340,15676,511,578,-93
0,-312,15700,511,609,-73
0,-388,15680,256,594,-111
0,-320,15712,511,572,-110
0,-396,15628,511,592,-108
0,-380,15660,511,586,-118
0,-328,15976,256,568,-89
0,-348,15904,256,582,-90
0,-356,15956,256,593,-106
0,-328,15944,256,585,-122
0,-344,15668,511,546,-126
0,-320,15896,256,574,-107
255,-524,15864,511,569,-69
0,-400,15704,511,578,-86
255,-620,15864,511,596,-76
0,-452,15696,511,604,-95
0,-396,15652,511,572,-118
0,-352,15912,256,557,-123
0,-400,15728,511,560,-108
0,-628,15848,511,557,-53
0,-332,15660,511,591,-112
0,-412,15656,511,571,-97
0,-276,15680,511,562,-119
0,-352,15676,511,557,-110
0,-388,15672,511,571,-100
0,-392,15620,511,561,-88
0,-404,15944,256,585,-77
0,-368,15916,256,568,-127
0,-332,15912,256,548,-91
255,-660,15848,511,581,-91
0,-336,15884,256,586,-82
0,-380,15648,511,577,-124
0,-396,15664,511,589,-87
0,-360,15948,256,565,-86
0,-416,15912,256,557,-87
0,-380,15632,511,560,-120
0,-364,15720,511,567,-72
0,-364,15928,256,562,-90
0,-364,15628,511,577,-95
0,-388,15696,511,575,-93
0,-352,15960,256,569,-99
0,-316,15696,511,561,-71
0,-360,15668,511,565,-83
0,-604,15864,511,598,-87
0,-368,15732,511,555,-111
0,-304,15644,511,565,-91
0,-356,15664,511,586,-116
0,-356,15676,511,602,-81
0,-380,15712,511,587,-98
0,-300,15708,511,598,-127
0,-360,15668,511,608,-99
255,-320,15924,256,602,-85
0,-348,15880,256,582,-106
0,-660,15852,511,581,-71
0,-348,15660,256,562,-123
255,-380,15652,511,577,-117
0,-376,15912,256,588,-73
0,-668,15840,511,587,-74
0,-392,15876,256,627,-86
0,-348,15700,511,571,-67
0,-348,15628,511,539,-113
0,-344,15912,256,590,-85
0,-340,15688,511,575,-111
0,-388,15648,256,578,-111
0,-384,15700,511,594,-87
0,-368,15916,256,586,-92
0,-368,15900,256,572,-54
0,-352,15948,256,585,-72
0,-404,15928,256,562,-100
0,-380,15956,256,584,-98
0,-376,15720,511,582,-143
0,-392,15676,511,560,-106
0,-372,15640,511,571,-87
0,-300,15664,511,585,-115
0,-408,15704,511,533,-115
0,-392,15924,256,579,-121
255,-360,15704,511,576,-102
0,-360,15668,511,544,-120
0,-372,15908,256,559,-98
255,-428,15660,511,564,-73
0,-368,15676,511,569,-107
0,-368,15700,511,579,-68
0,-620,15856,511,589,-81
0,-388,15660,511,579,-92
0,-380,15708,511,553,-105
0,-384,15672,511,544,-99
0,-360,15920,256,549,-96
0,-328,15672,511,534,-89
0,-624,15868,511,580,-95
0,-620,15816,511,587,-105
255,-300,15652,511,583,-87
255,-412,15672,511,566,-106
0,-364,15624,511,567,-90
0,-360,15900,256,543,-81
0,-368,15664,511,576,-101
0,-352,15672,511,575,-110
255,-372,15628,511,578,-96
0,-356,15652,511,554,-100
0,-336,15908,256,519,-100
0,-348,15700,511,596,-67
0,-320,15668,511,593,-95
255,-260,15628,511,558,-95
0,-600,15852,511,594,-115
0,-328,15976,256,604,-74
0,-340,15924,256,571,-87
0,-640,15868,511,591,-110
0,-376,15680,511,571,-92
0,-364,15988,256,588,-125
0,-332,15712,511,598,-104
0,-320,15716,511,576,-105
0,-448,15660,511,592,-103
0,-348,15920,256,587,-82
0,-332,15908,256,539,-86
0,-368,15652,511,569,-83
0,-384,15684,511,563,-98
0,-652,15864,511,556,-128
255,-372,15644,511,570,-98
0,-368,15952,256,576,-97
0,-404,15664,511,578,-125
0,-360,15700,256,559,-68
0,-360,15664,511,575,-96
0,-312,15924,256,579,-80
0,-316,15876,256,556,-99
0,-364,15900,256,577,-89
0,-656,16124,256,594,-78
0,-348,15636,511,568,-89
0,-408,15940,256,598,-105
0,-368,15652,511,581,-71
0,-340,15936,256,566,-103
0,-376,16008,256,558,-124
0,-392,15880,256,579,-101
0,-364,15680,511,574,-92
0,-408,15668,511,588,-90
0,-392,15684,511,560,-78
0,-336,15940,256,572,-106
0,-360,15652,511,576,-122
0,-396,15700,511,597,-93
0,-376,15628,511,558,-65
255,-352,15656,511,574,-117
0,-380,15664,511,593,-95
0,-336,15704,511,559,-93
0,-392,15644,511,572,-88
0,-416,15924,256,589,-97
0,-336,15684,511,547,-95
0,-308,15728,511,571,-103
0,-324,15948,256,596,-133
0,-364,15984,256,593,-79
0,-384,15704,511,573,-94
0,-352,15632,511,584,-101
255,-380,15652,511,610,-105
0,-400,15728,511,572,-98
0,-416,15628,511,564,-105
0,-372,15920,256,588,-77
0,-632,16100,256,579,-95
0,-388,15904,256,594,-77
0,-372,15652,256,581,-94
255,-332,15688,511,581,-115
0,-360,15676,511,566,-113
255,-340,15692,511,602,-88
0,-348,15908,256,587,-86
0,-648,15864,511,552,-115
0,-360,15676,511,570,-81
0,-368,15700,511,590,-115
0,-312,15928,256,570,-92
0,-320,15672,511,550,-109
0,-364,15996,256,591,-114
0,-360,15968,256,570,-112
255,-352,15912,256,570,-86
0,-380,15632,511,564,-87
0,-364,15880,256,546,-82
0,-380,15668,511,553,-95
0,-364,15928,256,577,-84
0,-344,15976,256,597,-84
0,-348,15928,256,567,-100
0,-344,15976,256,596,-111
0,-360,15688,511,561,-101
0,-348,15628,511,575,-94
0,-376,15664,511,584,-59
0,-336,15716,511,584,-110
0,-340,15660,511,572,-79
0,-344,15648,511,556,-87
0,-404,15932,256,555,-101
0,-300,15908,256,577,-105
0,-388,15632,511,554,-69
0,-316,15692,511,568,-70
0,-340,15672,511,573,-102
0,-400,15648,511,568,-90
0,-356,15676,511,569,-103
0,-412,15712,511,568,-95
0,-344,15912,256,578,-92
0,-280,15732,511,580,-69
0,-340,15892,256,573,-87
0,-348,15724,511,574,-84
0,-320,15684,511,562,-78
0,-356,15724,511,588,-72
0,-400,15652,511,576,-105
0,-328,15880,256,567,-98
0,-320,15664,511,574,-119
255,-384,15944,256,575,-94
0,-300,15896,256,571,-86
0,-288,15696,511,570,-116
0,-360,15908,256,555,-99
0,-356,15668,511,572,-93
0,-376,15676,511,576,-69
0,-316,15688,511,582,-89
0,-344,15884,256,564,-88
255,-540,15868,511,578,-123
0,-380,15700,511,577,-100
0,-384,15936,256,571,-94
0,-320,15652,511,579,-91
0,-412,15668,511,596,-102
0,-384,15932,256,573,-64
0,-300,15688,511,602,-83
0,-312,15944,256,590,-102
0,-320,15900,256,573,-97
0,-384,15896,256,571,-85
0,-428,15956,256,573,-99
0,-400,15660,511,571,-94
0,-344,15616,511,604,-91
0,-320,15680,511,560,-113
0,-344,15664,511,572,-86
0,-440,15928,256,581,-80
0,-600,16120,256,602,-66
0,-332,15904,256,574,-113
0,-308,15640,511,568,-120
0,-376,15636,256,598,-83
0,-364,15656,511,580,-89
0,-376,15936,256,595,-92
0,-284,15920,256,587,-67
0,-328,15680,511,578,-114
255,-284,15684,511,574,-119
0,-344,15676,511,598,-93
0,-324,15948,256,590,-69
0,-372,15936,256,583,-81
0,-424,15696,511,579,-87
0,-376,15888,256,593,-122
0,-636,16080,256,578,-94
0,-336,15884,256,558,-114
0,-340,15928,256,573,-94
0,-396,15716,511,571,-106
0,-404,15676,511,591,-81
0,-312,15968,256,583,-125
0,-352,15912,256,574,-86
0,-296,15664,511,557,-100
0,-332,15652,511,574,-101
0,-384,15892,256,556,-99
0,-412,15916,256,575,-79
0,-372,15640,511,585,-71
0,-352,15696,511,590,-72
0,-312,15648,511,571,-69
0,-384,15628,511,581,-78
0,-388,15924,256,587,-121
0,-384,15628,511,553,-107
0,-396,15704,511,561,-90
255,-364,15632,511,540,-115
0,-364,15632,511,567,-81
0,-328,15664,511,560,-100
0,-340,15684,511,580,-119
0,-300,15972,256,571,-67
0,-332,15648,511,573,-95
0,-324,15664,511,579,-92
0,-380,15640,511,606,-93
0,-380,15616,511,581,-84
0,-352,15640,511,600,-96
0,-320,15920,256,567,-89
0,-328,15692,511,568,-75
0,-408,15652,511,576,-91
0,-380,15624,511,591,-78
0,-380,15636,511,570,-124
0,-352,15908,256,586,-70
0,-344,15924,256,565,-75
0,-272,15896,256,606,-90
0,-600,15868,511,556,-100
0,-392,15616,511,586,-100
0,-276,15888,256,572,-102
0,-384,15636,511,566,-101
0,-308,15948,256,565,-113
0,-372,15696,511,563,-83
0,-364,15676,511,594,-85
0,-364,15688,511,574,-112
255,-328,15684,511,574,-66
0,-320,15676,511,578,-97
0,-404,15724,511,590,-87
0,-388,15708,511,557,-56
0,-364,15916,256,572,-86
0,-372,15676,511,578,-70
0,-400,15908,256,585,-99
0,-324,15700,511,594,-96
0,-340,15664,511,566,-80
0,-392,15680,511,593,-106
0,-300,15672,511,559,-70
0,-288,15920,256,565,-106
0,-332,15660,511,571,-102
0,-368,15668,511,542,-66
0,-388,15984,256,580,-91
0,-608,16112,256,598,-88
0,-384,15920,256,566,-88
0,-356,15920,256,580,-71
255,-320,15668,511,548,-56
0,-368,15912,256,586,-107
0,-316,15672,511,555,-103
0,-396,15660,511,573,-71
0,-384,15880,256,601,-87
0,-376,15664,511,549,-95
0,-404,15940,256,564,-120
0,-392,15908,256,570,-131
0,-344,15636,511,577,-113
0,-356,15692,511,580,-89
0,-320,15656,511,561,-52
0,-376,15724,511,587,-84
0,-356,15916,256,569,-108
0,-328,15684,511,548,-118
0,-380,15904,256,569,-126
0,-628,16120,256,597,-109
0,-364,15684,511,582,-75
0,-404,15940,256,600,-98
0,-292,15900,256,597,-69
0,-396,15640,511,590,-70
255,-684,15860,511,591,-111
0,-644,15848,511,556,-98
0,-372,15936,256,585,-120
0,-380,15644,511,604,-64
0,-376,15908,256,567,-78
0,-328,15900,256,535,-106
0,-352,15900,256,596,-114
0,-324,15668,511,588,-68
0,-380,15688,511,588,-109
0,-348,15916,256,573,-78
0,-352,15936,256,578,-102
0,-352,15928,256,584,-101
0,-336,15632,256,575,-73
0,-348,15684,511,563,-105
0,-564,16120,256,569,-78
0,-332,15872,256,606,-85
0,-312,15748,511,545,-84
0,-372,15620,511,564,-74
0,-380,15912,256,572,-95
0,-308,15644,511,583,-102
0,-332,15916,256,554,-97
0,-612,15824,511,607,-120
0,-384,15892,256,585,-107
0,-332,15928,256,585,-61
0,-364,15936,256,591,-109
0,-324,15648,511,562,-100
0,-384,15940,256,578,-117
0,-384,15692,511,567,-103
0,-312,15632,256,547,-74
0,-392,15892,256,599,-64
255,-344,15904,256,532,-106
0,-360,15900,256,577,-107
0,-328,15672,511,580,-97
0,-368,15916,256,566,-84
255,-368,15684,511,567,-86
0,-396,15908,256,564,-89
0,-280,15704,511,573,-86
0,-328,15660,511,580,-119
0,-372,15756,511,557,-111
0,-380,15628,511,593,-79
0,-428,16004,256,578,-82
0,-364,15944,511,589,-80
0,-344,15632,511,567,-111
0,-368,15672,511,555,-107
0,-340,15676,511,563,-95
0,-336,15680,511,577,-80
0,-300,15684,511,599,-80
0,-364,15660,511,555,-114
0,-360,15668,511,577,-95
0,-344,15644,511,573,-92
0,-332,15936,256,577,-129
0,-368,15936,256,568,-84
0,-576,16116,256,576,-58
0,-332,15636,511,571,-113
0,-340,15668,511,577,-67
0,-624,15820,511,562,-101
0,-396,15720,511,561,-103
0,-344,15896,256,586,-112
0,-400,15728,511,586,-81
0,-408,16016,256,564,-71
0,-412,15884,256,575,-110
0,-376,15684,511,606,-97
0,-376,15912,256,575,-83
0,-328,15924,256,598,-82
0,-292,15652,511,581,-92
0,-364,15668,511,568,-129
0,-424,15676,511,587,-110
0,-416,15904,256,574,-85
0,-316,15740,511,547,-93
0,-328,15700,511,567,-124
0,-368,15900,256,579,-78
0,-368,15660,511,561,-108
0,-364,15636,511,590,-89
0,-356,15656,511,594,-83
0,-356,15732,511,595,-80
0,-484,15636,511,577,-101
0,-348,15628,256,580,-73
0,-384,15948,256,564,-54
0,-428,15640,511,578,-135
0,-380,15656,511,570,-125
0,-348,15660,511,572,-91
0,-376,15696,511,561,-85
0,-332,15708,511,556,-107
0,-372,15644,511,585,-78
0,-352,15640,511,580,-116
0,-392,15636,511,572,-102
0,-380,15664,511,570,-97
0,-348,15952,256,547,-81
255,-360,15932,256,583,-106
0,-384,15908,256,608,-82
0,-380,15980,256,593,-74
0,-368,15944,256,568,-81
0,-348,15940,256,582,-106
0,-416,15668,511,564,-102
0,-348,15704,511,595,-89
0,-324,15648,511,571,-107
0,-348,15712,511,549,-107
0,-344,15916,256,586,-124
0,-364,15892,256,566,-111
0,-412,15644,511,576,-120
0,-316,15684,511,592,-75
0,-408,15932,256,559,-116
0,-344,15964,256,614,-88
0,-332,15936,256,583,-70
0,-372,15932,256,558,-95
0,-376,15664,511,590,-105
0,-372,15952,256,609,-126
0,-588,15856,511,597,-87
0,-348,15684,511,550,-112
0,-396,15912,511,572,-97
0,-264,15700,511,585,-80
255,-328,15680,511,579,-62
0,-340,15932,256,579,-97
0,-364,15924,256,581,-109
0,-376,15936,256,573,-112
255,-420,15636,256,588,-90
0,-348,15972,256,586,-122
0,-332,15696,511,562,-86
0,-376,15996,256,572,-112
0,-392,15928,256,605,-83
0,-380,15680,511,580,-89
0,-320,15636,511,577,-143
0,-652,16120,256,551,-92
0,-340,15640,511,579,-88
0,-404,15916,256,583,-82
0,-344,15620,511,566,-114
255,-396,15672,511,573,-94
0,-420,15664,511,571,-94
0,-308,15636,511,565,-86
0,-324,15616,511,572,-92
0,-376,15616,256,597,-86
0,-332,15644,511,596,-64
0,-348,15728,511,574,-58
0,-360,15696,511,583,-114
0,-392,15652,511,579,-68
0,-360,15624,511,578,-86
0,-408,15712,511,582,-85
255,-336,15660,511,560,-97
0,-392,15660,511,599,-102
0,-584,16104,256,569,-89
0,-340,15876,256,584,-94
0,-404,15748,511,595,-109
255,-352,15652,511,574,-103
0,-356,15624,511,564,-113
0,-324,15672,511,603,-96
0,-412,15960,256,569,-89
0,-376,15644,511,583,-68
255,-336,15676,511,595,-104
255,-380,15884,256,566,-101
0,-372,16004,256,572,-84
0,-360,15652,511,560,-78
0,-360,15948,256,573,-108
0,-368,15624,511,562,-89
0,-424,15952,256,557,-74
0,-392,15984,256,579,-111
0,-360,15628,511,595,-73
0,-356,16048,256,553,-102
0,-604,15864,256,572,-82
0,-364,15640,511,568,-92
0,-288,15876,256,550,-101
0,-384,15716,511,586,-91
0,-388,15624,511,579,-97
0,-348,15652,511,563,-68
0,-380,15912,256,569,-130
0,-568,15828,511,543,-106
255,-372,15648,511,578,-90
255,-376,15960,256,602,-92
0,-368,15936,256,573,-97
0,-388,15916,256,586,-122
0,-396,15672,511,556,-103
0,-340,15636,511,572,-84
0,-400,15708,511,593,-108
0,-356,15668,511,563,-85
0,-340,15652,511,564,-95
0,-628,15868,511,590,-100
255,-380,15880,256,572,-107
0,-388,15660,511,571,-76
0,-400,15648,511,577,-95
0,-380,15672,511,561,-150
0,-380,15664,256,576,-102
0,-372,15680,511,585,-96
0,-308,15668,511,572,-66
0,-348,15876,256,581,-114
0,-388,15896,256,570,-119
0,-416,15652,511,592,-88
0,-392,15660,511,583,-100
0,-396,15664,511,571,-109
0,-332,15708,511,564,-108
0,-392,15724,511,575,-78
0,-416,15628,511,585,-95
0,-336,15924,256,574,-109
0,-412,15904,256,595,-77
0,-372,15912,256,566,-93
0,-372,15616,511,567,-77
0,-384,15636,511,607,-103
0,-364,15692,511,578,-113
0,-372,15660,511,574,-104
0,-348,15696,511,597,-96
0,-328,15684,511,596,-89
0,-320,15680,511,593,-85
0,-392,15924,256,567,-87
255,-380,15644,511,587,-72
0,-372,15696,511,556,-83
0,-660,15860,511,602,-85
255,-592,16120,256,596,-101
0,-328,15636,511,573,-97
0,-344,15628,511,586,-94
0,-388,15908,256,575,-93
0,-340,15916,256,584,-114
0,-316,15680,511,564,-72
0,-332,15944,256,588,-125
0,-408,15688,511,570,-116
255,-428,15656,511,559,-83
0,-312,15632,511,541,-89
0,-376,15688,511,584,-93
255,-580,15836,511,575,-76
0,-380,15752,511,568,-92
0,-356,15908,256,589,-108
0,-364,15976,256,570,-58
0,-396,15684,511,581,-105
0,-372,15624,511,586,-120
0,-384,15916,256,567,-115
0,-360,15688,511,558,-113
255,-376,15672,511,586,-68
0,-388,15668,511,588,-95
0,-340,15900,256,561,-77
0,-344,15900,256,569,-109
255,-384,15908,256,569,-101
0,-320,15656,511,600,-76
0,-356,15672,511,564,-104
0,-396,15704,511,545,-85
0,-388,15692,511,564,-63
0,-352,15684,511,572,-84
0,-376,15676,511,584,-100
255,-384,15644,511,586,-107
0,-396,15688,256,585,-77
0,-368,15944,256,579,-111
0,-376,15924,256,570,-102
0,-328,15944,256,590,-92
0,-380,15896,256,602,-111
0,-388,15696,511,584,-86
0,-368,15648,511,570,-113
0,-328,15944,256,549,-109
255,-404,15664,511,559,-68
0,-396,15916,256,578,-131
0,-372,15668,511,584,-96
255,-392,15712,511,560,-83
0,-596,16088,256,592,-96
255,-356,15920,256,584,-97
0,-320,15640,511,575,-99
0,-340,15920,256,572,-115
0,-380,15680,511,585,-68
0,-340,15704,511,572,-99
0,-400,15912,256,585,-81
0,-388,15644,511,567,-102
0,-332,15888,256,557,-123
0,-368,15888,256,588,-110
0,-380,15664,511,604,-94
255,-388,15912,256,579,-87
255,-372,15640,511,591,-93
0,-368,15636,256,569,-105
0,-304,15624,511,598,-116
0,-380,15940,256,575,-93
0,-360,15648,511,566,-90
0,-360,15632,511,572,-69
0,-364,15692,511,577,-87
0,-328,15736,511,591,-110
255,-616,16100,256,550,-106
0,-356,15896,256,572,-106
0,-336,15908,256,558,-74
0,-416,15652,511,562,-100
0,-352,15708,511,575,-105
0,-336,15936,256,571,-102
0,-380,15648,511,567,-125
0,-312,15660,511,550,-121
0,-364,15896,256,592,-75
0,-360,15672,511,601,-94
0,-384,15664,511,570,-101
0,-352,15904,256,545,-108
0,-396,15940,256,600,-73
0,-292,15948,256,577,-82
0,-372,15880,256,588,-87
0,-340,15676,511,550,-92
0,-376,15704,511,568,-74
0,-368,15644,511,592,-93
0,-328,15640,511,594,-92
0,-356,15904,256,599,-94
0,-348,15648,511,550,-89
0,-380,15960,256,532,-99
0,-316,15672,511,584,-72
0,-296,15904,256,589,-76
0,-360,15876,256,565,-87
255,-376,15912,256,572,-102
0,-396,15672,511,568,-100
0,-360,15652,256,578,-77
0,-344,15684,511,556,-119
0,-296,15700,511,578,-98
0,-344,15708,511,562,-103
0,-332,15900,256,571,-100
0,-356,15632,511,562,-90
0,-344,15640,511,605,-95
0,-424,15692,511,546,-124
0,-328,15704,511,573,-117
0,-392,15932,256,569,-68
0,-336,15668,511,585,-82
255,-328,15644,511,573,-76
0,-660,16096,256,555,-103
0,-396,15872,256,577,-102
255,-344,15636,511,559,-95
0,-336,15632,511,555,-78
0,-332,15724,511,559,-106
0,-368,15924,256,591,-92
0,-364,15656,511,569,-102
0,-372,15656,511,595,-73
0,-356,15724,511,575,-120
0,-332,15660,511,556,-102
0,-428,15896,256,607,-93
0,-624,15828,511,591,-89
0,-348,15908,256,568,-76
0,-344,15888,256,548,-76
0,-344,15960,256,578,-111
0,-372,15652,511,566,-120
0,-300,15696,511,584,-79
0,-356,15688,511,603,-90
0,-276,15656,511,570,-104
0,-380,15660,511,575,-94
0,-636,15852,511,564,-129
0,-336,15932,256,562,-87
0,-324,15696,511,581,-98
0,-352,15688,511,566,-90
0,-392,15880,256,575,-87
0,-628,15828,511,571,-86
0,-316,15692,511,557,-101
0,-356,15660,511,583,-110
0,-380,15648,511,592,-109
0,-388,15660,511,585,-78
0,-296,15952,256,571,-70
0,-580,15864,511,620,-108
0,-376,15888,256,587,-105
0,-376,15680,511,585,-86
0,-292,15636,511,579,-81
0,-636,15824,511,564,-91
0,-636,15860,511,573,-99
0,-328,15692,511,589,-104
0,-280,15644,511,572,-87
0,-360,15876,256,592,-115
0,-376,15680,511,574,-75
0,-324,15644,511,576,-77
0,-336,15640,511,585,-91
0,-452,15680,511,554,-78
0,-384,15704,511,571,-84
0,-388,15672,511,572,-109
0,-332,15924,256,601,-84
0,-348,15932,256,574,-81
0,-332,15636,511,577,-90
0,-308,15884,256,565,-79
0,-364,15952,256,565,-98
0,-336,15892,256,563,-70
0,-372,15920,256,583,-67
0,-384,15676,511,595,-104
0,-288,15896,256,563,-123
0,-380,15628,511,570,-76
0,-400,15912,256,585,-99
0,-376,15648,511,574,-72
0,-348,15880,256,573,-124
0,-348,15672,511,575,-68
0,-356,15628,511,578,-120
0,-320,15696,511,565,-94
0,-316,15660,511,575,-103
0,-324,15652,511,562,-122
0,-336,15720,511,587,-67
255,-380,15660,511,603,-102
255,-412,15660,511,593,-97
0,-352,15900,256,583,-95
0,-344,15704,511,555,-72
0,-348,15892,256,589,-82
255,-396,15644,511,561,-131
0,-388,15644,511,568,-63
0,-372,15900,256,581,-88
0,-368,15920,256,576,-89
0,-400,15652,511,591,-116
0,-340,15924,256,591,-106
0,-396,15652,511,573,-43
0,-372,15676,511,572,-69
0,-332,15632,511,581,-147
0,-352,15640,511,561,-87
0,-376,15696,511,580,-97
0,-360,15672,511,592,-117
0,-324,15936,256,552,-104
0,-384,15648,511,598,-115
0,-376,15924,256,541,-107
0,-316,15892,256,582,-93
0,-376,15664,511,593,-103
0,-416,15636,511,598,-129
0,-352,15676,511,581,-81
0,-316,15712,511,589,-75
0,-340,15928,256,589,-71
0,-376,15940,256,583,-120
0,-664,15868,511,579,-71
0,-588,15848,511,593,-75
0,-360,15940,256,605,-79
0,-364,15904,256,598,-75
0,-344,15876,256,570,-88
0,-368,15724,511,567,-118
0,-368,15640,511,596,-117
0,-376,15668,511,573,-98
0,-344,15960,256,585,-110
255,-300,15952,256,568,-88
0,-292,15748,511,572,-104
0,-380,15968,256,586,-114
0,-272,15672,511,554,-69
0,-392,15704,511,557,-97
0,-332,15668,511,558,-112
255,-308,15616,511,581,-93
0,-352,15664,511,577,-74
0,-656,15864,511,558,-89
0,-392,15900,256,584,-108
0,-388,15672,511,584,-87
0,-672,15852,511,564,-81
255,-292,15700,511,586,-76
0,-304,15932,256,570,-85
0,-396,15660,511,601,-49
0,-308,15616,511,574,-118
0,-364,15648,511,571,-108
0,-352,15636,511,597,-62
0,-364,15900,256,577,-96
0,-368,15652,511,534,-122
0,-380,15944,256,604,-67
0,-372,15916,256,573,-121
0,-340,15904,256,552,-78
0,-376,15656,511,591,-96
0,-372,15928,256,560,-78
0,-404,15640,511,566,-89
255,-340,15676,511,576,-111
255,-364,15656,511,559,-74
255,-388,15712,511,567,-77
0,-344,15916,256,587,-97
0,-380,15688,511,576,-78
0,-384,15744,511,582,-95
255,-376,15696,511,553,-122
0,-420,15900,256,564,-84
0,-352,15892,256,588,-64
0,-328,15940,256,569,-108
0,-328,15672,511,554,-91
0,-380,15672,511,574,-92
0,-584,15860,511,577,-70
0,-376,15684,511,608,-64
255,-356,15896,256,569,-106
0,-344,15616,511,600,-82
0,-348,15636,511,564,-103
0,-384,15888,256,592,-95
0,-404,15680,511,576,-114
0,-356,15684,511,577,-80
0,-344,15640,511,552,-120
0,-372,15624,511,572,-105
0,-352,15684,256,551,-81
0,-320,15984,256,540,-125
255,-360,15620,511,580,-75
0,-348,15636,511,566,-66
0,-304,15672,511,570,-110
0,-384,15652,511,594,-95
0,-372,15684,511,598,-82
0,-332,15644,511,577,-91
0,-400,15724,511,589,-149
0,-368,15632,511,569,-71
0,-320,15944,256,573,-78
0,-304,15688,511,597,-105
0,-372,15948,256,573,-80
0,-412,15676,511,574,-85
255,-372,15672,511,577,-126
0,-308,15676,511,560,-89
0,-352,15928,256,587,-117
0,-324,15644,511,583,-107
0,-380,15928,256,590,-89
0,-352,15684,511,557,-86
0,-360,15876,256,573,-93
0,-344,15680,511,561,-96
0,-384,15668,511,552,-69
0,-348,15680,511,536,-70
0,-372,15632,511,562,-112
0,-364,15684,511,592,-82
0,-404,15936,256,564,-104
0,-372,15876,256,544,-106
0,-304,15668,511,593,-106
0,-340,15712,511,587,-110
0,-392,15940,256,571,-129
0,-344,15692,511,579,-100
0,-336,15664,511,580,-119
0,-340,15696,511,581,-111
0,-340,15948,256,586,-75
0,-368,15924,256,570,-85
0,-624,16120,256,583,-90
0,-376,15688,511,592,-96
0,-384,15640,256,566,-115
0,-336,15684,511,570,-114
0,-380,15704,511,592,-89
0,-416,15928,256,598,-131
0,-368,15640,511,567,-118
0,-432,15640,511,555,-96
0,-364,15960,256,594,-84
0,-400,15628,511,571,-123
0,-396,15688,511,546,-71
0,-352,16016,256,581,-75
0,-364,15656,511,580,-120
0,-388,15672,511,593,-94
0,-356,15680,511,568,-127
0,-392,15660,511,579,-108
0,-352,15628,511,578,-138
0,-388,15660,511,561,-78
0,-612,15820,511,561,-107
0,-384,15916,256,592,-108
0,-552,15868,511,594,-87
0,-376,15904,256,543,-82
0,-372,15672,511,566,-96
0,-340,15680,511,596,-82
0,-416,15972,256,576,-106
0,-332,15660,511,561,-97
0,-348,15908,256,595,-101
0,-356,15676,511,571,-99
0,-352,15660,511,599,-87
0,-324,15676,511,579,-81
0,-328,15884,256,574,-101
0,-424,15656,511,571,-90
0,-368,15980,256,571,-103
0,-308,15704,511,582,-112
0,-352,15664,511,586,-93
255,-360,15680,511,563,-98
0,-352,15672,511,585,-104
0,-388,15704,511,597,-80
0,-364,15700,511,574,-82
0,-292,15892,511,582,-135
0,-332,15700,511,581,-84
0,-408,15656,511,585,-90
0,-344,15916,256,577,-96
0,-352,15672,511,558,-113
0,-364,15636,511,583,-102
0,-348,15940,256,603,-111
0,-604,16104,256,571,-100
0,-332,15656,511,566,-83
0,-320,15632,511,574,-101
0,-388,15712,511,620,-88
0,-336,15708,511,559,-84
255,-352,15908,256,543,-118
0,-368,15708,511,586,-93
0,-396,15704,511,593,-83
0,-364,15708,511,551,-99
0,-524,15868,511,569,-119
255,-364,15948,256,583,-106
255,-404,15920,256,588,-96
0,-368,15988,256,559,-68
0,-344,15684,511,547,-112
255,-372,15988,256,593,-103
0,-356,15888,256,589,-125
0,-388,15936,256,538,-51
0,-412,15636,511,593,-80
0,-352,15908,256,568,-95
0,-356,15740,511,589,-107
0,-364,15992,256,595,-65
0,-336,15692,511,574,-88
0,-556,15848,511,620,-93
0,-372,15648,511,573,-112
0,-352,15672,511,541,-90
255,-552,15844,511,571,-105
0,-316,15712,511,580,-100
0,-392,15664,511,589,-82
0,-356,15644,511,571,-58
0,-408,15688,511,568,-127
255,-424,15704,511,574,-92
0,-568,16088,256,538,-123
0,-356,15932,256,584,-95
0,-348,15672,511,563,-103
0,-348,15668,511,580,-117
0,-360,15656,511,564,-98
0,-380,15676,511,580,-86
0,-332,15896,256,580,-92
0,-372,15696,511,573,-88
0,-304,15936,256,568,-99
0,-324,15676,511,567,-95
0,-316,15672,511,612,-63
0,-600,16116,256,585,-89
0,-356,15640,511,582,-70
0,-376,15656,511,587,-91
0,-408,15664,511,581,-114
0,-420,15676,511,553,-73
0,-588,15852,511,569,-99
0,-420,15704,511,573,-97
0,-344,15924,256,553,-81
0,-376,15944,256,572,-85
0,-388,15716,511,567,-100
0,-380,15952,256,588,-88
0,-392,15684,511,549,-68
0,-368,15644,511,594,-99
0,-332,15884,256,574,-99
255,-324,15972,256,573,-97
0,-408,15960,256,601,-103
0,-356,15652,511,561,-91
0,-376,15688,511,572,-93
0,-352,15656,511,580,-101
0,-368,15632,511,560,-104
0,-392,15916,256,567,-80
0,-332,15928,256,592,-87
0,-336,15724,511,576,-118
0,-340,15692,511,568,-98
0,-336,15916,256,583,-106
0,-360,15684,511,565,-85
0,-364,15956,256,566,-106
0,-380,15712,511,580,-91
0,-348,15676,511,577,-110
0,-356,15616,511,561,-96
0,-324,15640,256,572,-90
0,-356,15952,256,558,-101
255,-416,15732,511,551,-84
0,-344,15712,256,587,-47
0,-400,15904,256,585,-95
0,-356,15648,511,587,-99
0,-428,15948,256,612,-84
0,-344,15672,511,547,-107
0,-376,15680,511,563,-84
0,-376,15876,256,592,-98
0,-304,15988,256,587,-98
0,-368,15908,256,594,-82
0,-292,15936,256,591,-92
0,-364,15956,256,565,-101
0,-320,15936,256,586,-83
0,-336,15648,511,590,-96
0,-344,15940,256,576,-97
0,-312,15672,511,582,-86
0,-332,15704,511,573,-87
0,-368,15900,256,531,-112
0,-400,15724,511,589,-105
0,-384,15620,511,577,-103
0,-416,15664,511,578,-102
0,-420,15964,256,564,-103
0,-348,15668,511,607,-63
0,-348,15688,511,596,-89
0,-328,15680,511,564,-105
0,-640,16120,256,557,-116
0,-452,15660,511,570,-80
0,-324,15652,256,569,-99
0,-396,15892,256,568,-120
0,-328,15620,511,580,-134
0,-372,15704,511,568,-89
0,-340,15632,511,576,-117
0,-364,15680,511,580,-91
0,-364,15636,511,556,-90
0,-364,15656,511,575,-77
0,-416,15684,511,581,-63
0,-320,15676,511,602,-123
0,-308,15668,511,574,-80
0,-600,15868,511,586,-81
0,-352,15700,511,578,-87
0,-380,15664,511,599,-97
0,-420,15912,256,589,-91
0,-584,16112,256,577,-101
0,-316,15936,256,557,-81
255,-332,15660,511,597,-117
0,-392,15696,511,582,-107
0,-300,15904,256,576,-82
255,-356,15668,511,579,-84
0,-324,15912,256,573,-93
0,-328,15692,511,569,-90
0,-340,15640,511,581,-81
0,-560,15868,511,556,-86
0,-352,15728,511,568,-79
0,-356,15656,511,592,-110
0,-328,15636,511,558,-77
0,-412,15680,511,565,-77
0,-352,15688,511,574,-111
0,-356,15988,256,560,-100
0,-332,15724,511,575,-105
0,-348,15872,256,548,-94
0,-376,15700,511,575,-74
0,-336,15952,256,583,-94
0,-380,15720,511,558,-92
0,-288,15624,511,608,-111
255,-344,15704,511,545,-111
0,-372,15952,256,601,-52
0,-316,15740,511,578,-108
0,-316,15872,256,570,-73
0,-372,15900,256,587,-82
0,-420,15624,511,608,-93
0,-348,15628,511,562,-79
0,-380,15912,256,557,-61
0,-380,15644,511,579,-101
0,-336,15944,256,583,-73
255,-364,15632,511,573,-97
0,-348,15920,256,606,-90
0,-356,15712,511,571,-98
0,-384,15688,511,601,-97
0,-628,16116,256,582,-86
0,-380,15972,256,587,-63
0,-340,15688,511,572,-120
0,-552,15848,511,560,-80
0,-356,15696,511,564,-61
0,-336,15956,256,549,-101
0,-324,15932,256,596,-97
0,-376,15684,511,597,-93
0,-332,15948,256,586,-91
0,-380,15964,256,569,-99
0,-376,15664,511,570,-100
255,-424,15668,511,592,-115
0,-404,15644,511,595,-84
0,-344,15648,511,563,-111
0,-632,15860,511,545,-76
0,-328,15928,256,585,-93
0,-392,15900,256,597,-80
0,-344,15892,256,588,-77
0,-368,15904,256,598,-75
0,-392,15640,511,575,-109
0,-356,15712,511,567,-88
0,-360,15928,256,582,-116
0,-356,15616,511,584,-99
0,-340,15936,256,569,-78
0,-336,15640,511,570,-87
0,-364,15676,511,555,-91
0,-384,15656,511,590,-97
0,-356,15916,256,574,-82
0,-356,15908,256,559,-83
0,-332,15696,511,587,-85
0,-356,15640,511,577,-129
0,-380,15648,511,578,-85
0,-392,15916,256,574,-89
0,-376,15912,256,583,-96
0,-384,15736,511,570,-95
0,-392,15684,511,583,-84
0,-396,15632,511,578,-83
0,-388,15676,511,590,-114
0,-332,15668,511,576,-54
0,-324,15912,256,549,-102
0,-356,15944,256,587,-78
0,-312,15676,511,569,-69
0,-360,15912,256,563,-105
0,-592,15840,511,566,-86
0,-296,15688,511,558,-89
0,-348,15876,256,584,-78
0,-400,15924,256,577,-110
0,-320,15908,256,593,-105
0,-296,15972,256,568,-115
0,-404,15628,511,581,-72
0,-352,15668,511,582,-55
0,-324,15980,256,590,-98
255,-360,15656,511,568,-139
0,-328,15892,256,585,-102
0,-392,15736,511,575,-98
0,-384,15964,256,596,-107
0,-364,15944,256,590,-104
255,-336,15884,256,577,-98
0,-300,15716,511,562,-87
0,-316,15696,511,578,-86
0,-356,15636,511,582,-82
0,-404,15932,256,535,-63
0,-448,15928,256,563,-111
0,-380,15676,256,574,-120
0,-608,16120,256,616,-84
0,-312,15616,511,567,-91
0,-412,15900,256,565,-111
0,-300,15684,511,583,-121
0,-388,15928,256,578,-117
0,-308,15900,256,550,-103
0,-344,15644,511,581,-69
0,-352,15936,256,563,-83
0,-356,15688,511,554,-103
0,-344,15896,256,573,-88
0,-336,15648,511,559,-82
0,-380,15632,511,564,-104
0,-344,15672,511,586,-116
0,-336,15992,256,572,-96
0,-336,15676,511,587,-93
0,-348,15948,256,551,-90
0,-340,15648,511,571,-110
0,-372,15900,256,569,-97
0,-328,15656,511,583,-112
0,-376,15664,511,612,-95
0,-292,15940,256,556,-81
0,-320,15656,511,548,-87
0,-396,15644,511,549,-105
0,-324,15672,511,589,-78
0,-336,15872,256,591,-62
0,-372,15636,511,580,-91
0,-364,15652,511,580,-98
255,-368,15912,256,588,-98
0,-336,15668,511,563,-81
0,-348,15888,511,589,-88
0,-368,15664,511,550,-93
0,-340,15684,511,585,-100
255,-380,15680,511,584,-79
0,-344,15648,511,563,-93
0,-396,15668,511,559,-90
0,-360,15668,511,562,-71
0,-384,15700,511,568,-86
255,-320,15660,511,564,-92
255,-424,15668,511,581,-90
0,-312,15636,511,599,-76
0,-268,15720,511,585,-131
0,-328,15628,511,572,-110
255,-384,15940,256,605,-114
0,-348,15664,511,567,-57
0,-316,15632,511,548,-117
0,-384,15664,511,566,-115
0,-280,15888,256,568,-79
0,-348,15920,256,576,-73
0,-344,15720,511,580,-93
0,-332,15688,511,599,-96
0,-292,15656,511,589,-135
0,-332,15656,511,558,-72
255,-644,16124,256,609,-94
0,-324,15652,511,566,-113
0,-392,15680,511,558,-76
0,-368,15872,256,603,-103
0,-348,15644,511,572,-104
0,-336,15640,511,574,-96
255,-360,15744,511,593,-62
0,-296,15680,511,563,-100
0,-360,15668,511,572,-83
255,-360,15668,511,570,-78
0,-408,15660,256,560,-100
255,-292,15904,256,573,-85
0,-368,15940,256,566,-101
0,-332,15620,511,600,-118
255,-352,15656,511,581,-90
0,-316,15724,511,551,-94
0,-320,15648,511,583,-91
0,-376,15688,511,587,-80
255,-384,15696,511,562,-78
0,-376,15932,256,547,-82
0,-388,15632,511,541,-93
0,-272,15680,511,575,-129
0,-308,15648,511,584,-95
0,-320,15636,511,555,-103
0,-388,15636,511,588,-107
0,-328,15644,511,579,-98
255,-328,15928,256,576,-113
0,-384,15644,511,584,-100
0,-356,15976,256,569,-87
0,-328,15928,256,565,-70
0,-380,15884,256,594,-118
0,-376,15936,256,549,-68
255,-340,15692,511,577,-102
0,-344,15896,256,596,-113
0,-300,15656,511,568,-101
0,-344,15716,511,558,-129
0,-356,15624,511,561,-113
0,-340,15644,511,556,-78
0,-392,15684,511,576,-96
0,-376,15660,511,579,-76
0,-344,15876,256,556,-113
0,-344,15688,511,576,-100
0,-312,15928,256,564,-92
0,-336,15676,511,603,-101
0,-344,15676,511,601,-92
0,-376,15896,256,584,-59
255,-336,15692,511,576,-104
0,-368,15672,511,575,-92
255,-332,15900,256,551,-105
255,-392,15660,511,585,-84
0,-408,15916,256,582,-93
0,-312,15648,511,564,-101
0,-620,15852,511,591,-87
0,-580,16124,256,561,-95
0,-340,15668,256,582,-77
0,-388,15704,511,592,-55
0,-356,15660,511,551,-105
0,-380,15924,256,582,-99
0,-364,15660,511,567,-96
0,-320,15660,511,579,-64
0,-328,15872,256,550,-89
0,-356,15656,511,596,-79
0,-340,15952,256,588,-88
0,-384,15920,256,581,-92
0,-404,15944,256,588,-75
0,-340,15616,511,573,-91
0,-396,15876,256,577,-85
0,-360,15680,511,547,-94
0,-364,15708,511,593,-62
0,-352,15656,511,562,-97
0,-552,16080,256,592,-77
0,-376,15652,511,577,-103
0,-380,15980,256,572,-93
0,-388,15956,256,563,-88
0,-372,15912,256,568,-89
255,-328,15676,511,614,-83
0,-348,15632,511,583,-109
0,-348,15616,511,582,-74
0,-380,15652,511,579,-62
0,-380,15924,256,576,-87
0,-352,15704,511,567,-85
0,-376,15644,511,563,-67
0,-368,15668,511,615,-80
0,-404,15932,256,566,-115
0,-360,15664,511,561,-93
0,-288,15656,511,570,-105
0,-288,15648,511,586,-76
0,-356,15664,511,588,-70
255,-344,15636,511,586,-112
0,-352,15916,256,578,-97
0,-388,15688,511,588,-84
0,-388,15656,511,578,-105
0,-432,15676,511,592,-109
0,-380,15676,511,585,-100
0,-528,15832,511,558,-82
0,-392,15620,511,589,-88
0,-320,15672,511,552,-74
0,-380,15876,256,602,-127
0,-308,16012,256,593,-87
0,-316,15652,511,571,-110
0,-344,15944,256,579,-105
255,-380,15628,511,584,-92
0,-344,15876,256,578,-100
0,-336,15976,256,595,-81
0,-364,15668,511,592,-90
0,-372,15904,256,587,-85
0,-352,15692,511,598,-132
255,-364,15656,511,555,-98
0,-364,15688,511,583,-88
0,-324,15684,511,595,-82
0,-336,15624,511,589,-124
0,-592,16104,256,560,-86
0,-380,15640,511,570,-34
0,-376,15932,256,559,-89
0,-356,15676,511,562,-107
0,-368,15908,256,557,-87
0,-620,15860,511,585,-88
0,-336,15688,511,575,-102
0,-440,15620,511,586,-83
0,-612,15868,511,580,-79
0,-392,15632,511,588,-78
255,-372,15644,511,556,-86
0,-592,15864,511,563,-121
0,-340,15708,511,570,-110
255,-356,15732,511,587,-77
0,-328,15664,511,585,-93
0,-544,16104,256,564,-89
0,-376,15712,511,545,-133
0,-316,15728,511,552,-85
0,-368,15652,511,544,-102
0,-388,15704,511,584,-94
0,-316,15920,256,556,-122
0,-352,15664,511,576,-79
0,-340,15644,511,583,-80
0,-300,15620,511,568,-88
0,-380,15664,511,558,-89
0,-388,15924,256,560,-81
0,-376,15656,511,562,-88
0,-328,15732,511,595,-110
0,-332,15680,511,570,-112
0,-296,15656,256,580,-91
0,-320,15912,256,545,-95
0,-412,15660,256,553,-84
0,-368,15672,511,573,-79
0,-340,15616,511,577,-86
0,-320,15896,256,573,-99
0,-360,15636,511,548,-96
255,-368,15960,256,573,-110
0,-400,15880,256,584,-87
0,-308,15616,511,585,-87
0,-352,15920,256,580,-117
0,-352,15924,256,591,-120
0,-608,15864,511,573,-79
0,-340,15916,256,592,-113
0,-316,15656,511,584,-80
0,-660,15868,256,589,-72
0,-320,15664,511,617,-99
0,-352,15664,511,582,-118
0,-384,15940,256,575,-132
0,-340,15916,256,585,-115
0,-372,15636,511,576,-94
0,-404,15648,511,564,-121
0,-340,15708,511,590,-87
255,-356,15632,511,590,-89
0,-360,15620,511,597,-103
0,-308,15932,256,583,-88
0,-364,15684,511,558,-114
0,-612,15856,511,559,-86
255,-376,15656,511,550,-85
255,-332,15972,256,580,-95
0,-324,15636,511,588,-61
0,-328,15648,511,573,-95
0,-260,15680,511,579,-86
0,-332,15648,511,560,-86
0,-332,15920,256,564,-124
255,-316,15888,256,587,-72
0,-376,15656,511,579,-74
256,-512,15896,256,589,-84
0,-328,15752,511,578,-80
255,-396,15676,511,573,-88
0,-340,15652,511,592,-99
0,-344,15668,511,548,-105
255,-308,15680,511,590,-106
0,-316,15920,256,564,-97
0,-348,15896,256,535,-128
0,-336,15712,511,567,-77
0,-360,15720,511,561,-103
255,-376,15728,511,589,-74
0,-308,15636,511,557,-66
0,-344,15884,256,569,-119
0,-336,15636,511,603,-106
0,-360,15676,511,564,-60
0,-336,15676,511,599,-74
0,-372,15660,511,570,-59
0,-340,15644,511,563,-105
0,-316,15672,511,571,-76
0,-348,15912,256,563,-100
255,-312,15928,256,572,-73
0,-296,15676,511,566,-97
0,-388,15652,511,569,-126
0,-280,15928,256,573,-107
0,-348,15620,511,578,-108
0,-368,15664,511,585,-74
0,-384,15628,511,575,-94
0,-352,15692,511,589,-152
255,-372,15884,256,550,-126
0,-352,15908,256,590,-87
0,-360,15936,256,564,-104
0,-348,15896,256,555,-115
0,-612,16116,256,552,-86
255,-628,16124,256,568,-94
0,-364,15880,256,572,-70
0,-336,15644,511,551,-112
0,-272,15696,511,539,-117
255,-344,15648,511,591,-69
0,-380,15912,256,570,-103
0,-372,15688,511,559,-108
0,-304,15668,511,590,-56
0,-356,15932,256,570,-100
0,-400,15652,511,587,-82
0,-372,15680,511,571,-73
0,-368,15632,511,567,-96
0,-280,15624,511,589,-101
255,-332,15664,511,575,-101
0,-352,15704,511,595,-104
0,-360,15708,511,578,-76
0,-324,15652,511,586,-100
0,-376,15908,256,580,-107
0,-292,15732,511,600,-68
0,-304,15672,511,554,-117
0,-360,15644,511,568,-53
0,-376,15940,256,588,-88
0,-304,15636,511,582,-97
0,-384,15896,256,538,-69
0,-336,15888,256,599,-98
0,-604,15856,511,590,-125
0,-388,15944,256,576,-55
0,-364,15672,511,549,-109
0,-304,15620,511,608,-101
0,-392,15660,511,554,-82
0,-380,15708,511,573,-91
0,-332,15696,511,561,-87
0,-404,15940,256,581,-92
0,-332,15684,511,592,-125
0,-364,15660,511,559,-102
0,-396,15952,256,566,-108
0,-640,16120,256,583,-104
0,-388,15696,511,563,-112
0,-324,15676,511,588,-90
0,-364,15936,256,579,-91
0,-364,15896,256,556,-101
0,-376,15692,511,587,-91
0,-388,15656,511,580,-69
0,-432,15908,256,588,-95
0,-392,15644,511,596,-124
0,-300,15692,511,578,-97
0,-372,15668,511,551,-117
0,-380,15708,511,568,-56
0,-368,15916,256,582,-117
0,-380,15880,256,567,-109
0,-624,15864,511,554,-106
0,-380,15676,256,574,-88
255,-376,15652,511,591,-70
0,-368,15664,511,575,-71
0,-268,15904,256,599,-97
0,-356,15648,511,602,-89
0,-320,15648,511,557,-60
0,-392,15616,511,568,-60
0,-384,15668,511,577,-97
0,-392,15700,511,585,-101
0,-396,15640,511,574,-100
0,-364,15720,511,578,-116
0,-404,15648,511,585,-84
0,-316,15916,256,585,-126
0,-372,15892,256,575,-112
0,-360,15696,511,576,-101
0,-372,15664,511,572,-111
0,-672,16124,256,582,-87
0,-364,15644,511,578,-91
0,-340,15688,511,576,-91
0,-340,15920,256,610,-79
0,-332,15652,511,562,-146
0,-388,15900,256,579,-111
0,-420,15692,511,550,-81
0,-332,15876,256,581,-88
0,-336,15636,511,590,-99
0,-368,15664,511,591,-101
0,-368,15720,511,603,-108
0,-408,15900,256,575,-111
0,-344,15648,511,567,-76
0,-364,15904,256,591,-80
0,-348,15900,256,572,-97
0,-340,15652,511,591,-104
0,-316,15660,511,591,-63
255,-396,15972,256,586,-89
0,-272,15644,511,590,-105
0,-364,15672,511,575,-69
0,-392,15944,256,555,-97
0,-384,15684,511,581,-75
255,-332,15656,511,586,-91
0,-344,15916,256,544,-94
0,-344,15688,511,554,-115
0,-384,15672,511,578,-86
0,-316,15940,256,591,-89
0,-348,15948,256,561,-117
0,-364,15944,256,582,-89
0,-352,15644,511,571,-77
0,-356,15704,511,578,-101
0,-368,15660,511,579,-135
0,-344,15936,256,583,-81
0,-264,15680,256,597,-74
0,-264,15896,256,572,-87
0,-360,15964,256,583,-98
0,-360,15652,511,598,-102
0,-368,15672,511,590,-138
0,-648,15868,511,560,-95
0,-300,15872,256,576,-91
0,-324,15716,511,561,-92
0,-624,15856,511,567,-77
0,-404,15668,511,589,-99
0,-368,15924,256,574,-110
0,-596,16120,256,570,-107
255,-368,15656,511,574,-74
0,-356,15684,511,587,-96
0,-436,15676,511,574,-86
0,-372,15672,511,549,-124
255,-392,15708,511,582,-97
0,-352,15648,511,592,-107
0,-312,15904,256,563,-77
0,-376,15692,511,570,-106
0,-392,15692,511,582,-99
0,-384,15684,511,584,-98
0,-376,15652,511,580,-115
255,-384,15956,256,567,-84
0,-344,15668,511,555,-104
0,-372,15900,256,579,-92
0,-332,15904,256,564,-114
255,-332,15896,256,561,-118
0,-316,15928,256,577,-95
0,-392,15660,511,592,-92
0,-420,15680,511,554,-47
0,-388,16000,256,552,-106
0,-360,15656,511,562,-81
0,-368,15884,256,577,-92
0,-376,15972,256,589,-69
0,-348,15652,511,579,-104
0,-320,15652,511,561,-86
255,-308,15700,511,565,-100
0,-336,15968,256,571,-81
0,-344,15696,511,590,-102
0,-380,15648,256,553,-87
0,-360,15880,256,568,-105
0,-332,15896,256,571,-126
0,-316,15660,511,569,-78
0,-392,15724,511,578,-94
0,-324,15632,511,575,-82
255,-384,15652,511,595,-88
0,-316,15904,256,589,-83
0,-360,15684,511,574,-79
255,-324,15956,256,597,-97
0,-348,15728,511,572,-95
0,-296,15936,256,579,-91
0,-384,15692,511,562,-101
0,-380,15936,256,579,-105
0,-396,16000,256,575,-109
0,-392,15624,511,568,-125
0,-316,15912,256,587,-98
0,-388,15688,256,562,-92
0,-372,15672,511,572,-98
0,-348,15676,511,560,-78
0,-316,15644,511,580,-101
0,-396,15652,511,554,-94
0,-292,15684,511,551,-121
0,-348,15952,256,579,-63
0,-396,15948,256,560,-116
0,-328,15944,256,574,-88
0,-636,15860,511,585,-112
0,-364,15692,511,554,-94
0,-308,15716,256,561,-91
0,-360,15632,511,602,-93
0,-348,15872,256,562,-121
0,-380,15724,256,591,-95
0,-304,15680,511,566,-116
0,-348,15680,511,565,-84
0,-356,15924,256,568,-88
0,-352,15960,256,563,-116
0,-364,15956,256,596,-96
0,-344,15636,511,564,-97
0,-324,15896,256,554,-100
0,-632,16096,256,559,-102
0,-336,15628,511,590,-106
0,-332,15924,256,549,-117
0,-376,15684,511,569,-102
0,-408,15896,256,581,-91
0,-396,15928,256,568,-94
0,-340,15672,511,595,-89
0,-356,15940,256,563,-108
0,-392,15648,256,585,-54
0,-384,15892,256,574,-86
0,-288,15688,511,573,-59
0,-312,15688,511,583,-78
0,-588,16112,256,571,-98
0,-376,15664,511,590,-99
0,-320,15932,256,562,-113
0,-368,15672,511,562,-87
0,-368,15696,511,578,-102
0,-324,15640,511,560,-92
0,-356,15676,511,567,-109
0,-372,15684,511,585,-99
0,-364,15952,256,556,-101
0,-604,15852,511,592,-71
0,-332,15896,256,556,-93
0,-336,15648,511,572,-99
0,-616,15864,511,582,-124
0,-368,15900,256,590,-111
0,-300,15652,511,573,-93
0,-400,15956,256,573,-98
0,-336,15952,256,584,-97
0,-432,15616,511,612,-111
0,-436,15912,256,561,-96
0,-396,15908,256,575,-95
0,-332,15668,511,577,-120
0,-384,15644,511,577,-107
255,-352,15636,511,578,-76
0,-400,15924,256,565,-73
0,-384,15976,256,569,-90
0,-596,15860,511,557,-117
0,-320,15656,511,610,-92
0,-364,15676,511,584,-95
0,-372,15924,256,567,-103
0,-344,15656,511,565,-137
0,-384,15624,511,602,-87
0,-320,15680,511,553,-122
0,-344,15628,511,571,-98
0,-636,16120,256,565,-92
0,-568,15868,511,567,-92
0,-432,15640,511,582,-74
0,-352,15932,256,556,-90
0,-344,15700,511,568,-117
0,-396,15700,511,582,-120
0,-420,15664,511,565,-66
0,-364,15620,511,589,-96
0,-376,15884,256,564,-75
0,-604,16104,256,592,-74
0,-320,15912,256,547,-89
0,-392,15672,511,569,-91
0,-352,15664,511,565,-92
0,-624,15820,511,607,-105
0,-364,15932,256,580,-100
0,-368,15956,256,571,-121
0,-372,15712,511,574,-79
0,-388,15664,511,583,-86
255,-388,15664,511,582,-83
0,-360,15692,511,551,-88
0,-364,15948,256,566,-67
0,-328,15664,511,598,-137
0,-372,15636,511,580,-108
0,-320,15672,511,565,-105
0,-416,15648,511,570,-115
0,-328,15684,511,564,-68
0,-304,15664,511,577,-111
0,-316,15924,256,611,-105
0,-308,15648,511,567,-130
0,-408,15652,511,625,-70
0,-364,15672,511,591,-88
0,-352,15644,511,543,-70
0,-336,15960,256,578,-79
0,-384,15660,511,580,-62
0,-328,15928,256,576,-111
0,-312,15700,511,570,-82
0,-344,15916,256,590,-75
0,-316,15952,256,578,-105
0,-368,15636,511,589,-64
0,-288,15976,256,577,-87
0,-436,15636,511,560,-103
0,-380,15644,511,591,-105
0,-348,15884,256,553,-67
0,-384,15876,256,609,-96
0,-344,15652,511,595,-83
0,-612,15852,511,581,-113
0,-576,15848,511,573,-121
0,-644,15844,511,569,-108
0,-380,15636,511,604,-81
0,-596,15832,511,586,-96
0,-356,15896,256,571,-120
0,-308,15896,256,576,-98
0,-324,15880,256,570,-99
0,-340,15948,256,568,-90
0,-356,15948,256,580,-105
0,-336,15944,256,592,-85
0,-348,15932,256,609,-82
0,-332,15744,511,570,-112
0,-284,15664,511,580,-92
0,-340,15892,256,556,-111
0,-672,15820,511,577,-79
0,-384,15668,511,572,-122
0,-400,15688,511,583,-128
0,-356,15624,511,601,-120
255,-364,15680,511,578,-85
0,-376,15668,511,581,-53
0,-332,15708,511,583,-83
0,-380,15916,256,576,-109
0,-324,15724,511,577,-96
0,-356,15912,256,567,-92
0,-632,16116,256,576,-70
0,-392,15888,256,597,-86
0,-376,15644,511,564,-111
0,-372,15624,511,576,-106
0,-288,15948,256,564,-92
0,-300,15960,256,586,-93
0,-352,15912,256,558,-83
0,-352,15912,256,573,-102
0,-364,15872,256,606,-62
0,-364,15628,511,593,-100
255,-360,15892,256,592,-93
0,-328,15652,511,585,-86
0,-320,15920,256,558,-76
0,-368,15732,511,593,-105
0,-296,15904,256,581,-85
0,-372,15664,511,600,-98
255,-344,15676,511,566,-93
0,-320,15688,511,579,-105
0,-336,15712,511,569,-91
0,-356,15936,256,591,-110
255,-300,15944,256,551,-78
0,-364,15652,511,576,-107
0,-408,15908,256,583,-105
0,-368,15680,511,591,-87
0,-344,15964,256,576,-110
0,-364,15668,511,541,-84
0,-372,15668,511,567,-87
0,-364,15948,256,582,-104
0,-344,15656,511,585,-100
255,-384,15920,256,565,-95
0,-364,15960,256,576,-108
0,-388,15708,511,575,-74
0,-364,15676,511,557,-127
0,-336,15636,511,582,-84
0,-328,15920,256,548,-104
0,-360,15900,256,587,-130
255,-432,15904,256,577,-105
0,-416,15640,511,578,-82
0,-360,15952,256,591,-102
0,-360,15696,511,606,-97
255,-368,15640,511,581,-96
0,-392,15660,511,589,-90
0,-392,15664,511,560,-98
0,-280,15672,511,580,-70
0,-400,15732,511,573,-59
0,-304,15668,511,593,-86
0,-424,15644,511,572,-116
0,-404,15652,511,594,-87
0,-412,15700,511,582,-98
0,-312,15624,511,586,-87
0,-352,15660,511,603,-102
0,-356,15932,256,577,-94
0,-352,15984,256,574,-104
0,-308,15900,256,584,-87
0,-312,15656,511,567,-103
0,-380,15684,511,578,-106
0,-396,15892,256,582,-73
0,-360,15948,256,581,-105
0,-368,15648,511,587,-107
255,-372,15628,511,575,-97
0,-376,15916,256,598,-73
0,-364,15916,256,564,-64
255,-352,15664,511,568,-94
0,-328,15688,511,597,-80
0,-344,15904,256,598,-97
0,-400,15680,511,560,-93
0,-380,15680,511,588,-110
0,-308,15680,511,558,-89
0,-372,15960,256,592,-99
255,-348,15696,511,571,-108
0,-320,15664,511,563,-116
0,-348,15944,256,567,-94
0,-384,15720,511,558,-108
0,-380,15660,511,551,-100
0,-416,15620,511,586,-88
0,-356,15912,256,581,-112
0,-364,15928,256,563,-113
0,-344,15684,511,603,-84
0,-388,15908,256,571,-92
0,-304,15944,256,586,-55
0,-352,15680,511,577,-134
0,-420,15684,511,569,-104
0,-396,15912,256,581,-87
0,-384,15964,256,577,-83
0,-360,15700,511,584,-110
0,-352,15684,511,559,-103
0,-584,15868,256,583,-115
0,-628,15848,511,599,-78
0,-348,15912,256,567,-111
0,-292,15684,511,597,-101
0,-436,15712,511,579,-95
0,-340,15932,256,589,-110
255,-364,15704,511,569,-100
0,-364,15712,511,551,-99
0,-344,15640,511,599,-101
0,-356,15696,511,585,-108
0,-368,15916,256,582,-118
0,-608,15864,511,561,-86
255,-320,15624,511,578,-115
0,-356,15672,511,557,-123
0,-372,15968,256,598,-95
0,-372,15940,256,557,-96
0,-312,15640,511,571,-92
0,-308,15928,256,578,-92
0,-356,15692,256,559,-125
0,-340,15892,256,595,-90
255,-392,15648,511,576,-77
0,-324,15664,511,581,-90
0,-368,15680,511,544,-72
0,-344,15916,256,530,-77
0,-364,15704,511,586,-110
0,-376,15944,256,569,-67
0,-376,15632,511,566,-91
0,-328,15628,511,555,-98
0,-396,15628,511,550,-86
255,-384,15928,256,569,-121
0,-356,15924,256,582,-91
0,-324,15672,511,565,-95
0,-384,15696,511,569,-119
0,-392,15980,256,592,-86
0,-364,15676,511,572,-118
0,-384,15684,511,589,-109
0,-348,15960,256,582,-96
0,-312,15676,511,567,-120
0,-352,15644,511,557,-66
0,-332,15680,511,556,-126
0,-356,15696,511,583,-115
0,-364,15684,511,574,-91
0,-384,15648,511,584,-85
0,-380,15696,511,589,-87
0,-384,15692,511,578,-126
0,-336,15644,511,559,-112
0,-324,15668,511,566,-79
0,-348,15924,256,570,-89
0,-340,15660,511,584,-80
0,-376,15672,511,577,-90
0,-352,15988,256,565,-84
0,-360,15640,511,582,-119
0,-292,15684,511,564,-98
0,-612,16108,256,559,-72
0,-332,15680,511,595,-91
0,-332,15672,511,600,-79
0,-596,16124,256,550,-83
0,-300,15920,256,584,-93
0,-444,15692,511,566,-101
255,-336,15616,511,569,-115
0,-376,15616,511,565,-75
0,-348,15908,256,602,-118
0,-304,15720,511,576,-102
0,-296,15916,256,568,-103
0,-344,15736,511,592,-59
0,-596,16100,256,595,-92
0,-348,15632,511,578,-119
0,-348,15708,511,589,-74
0,-340,15688,511,584,-107
0,-348,15888,256,569,-114
0,-404,15976,256,605,-86
0,-360,15704,511,566,-110
0,-308,15672,511,550,-79
0,-376,15672,511,584,-76
0,-396,15640,511,560,-98
0,-344,15632,511,563,-85
0,-400,15688,511,608,-107
0,-368,15620,511,547,-108
0,-388,15704,511,578,-92
0,-392,15892,256,582,-100
0,-376,15672,511,581,-87
0,-352,15912,256,558,-111
0,-632,15864,511,580,-85
0,-404,15696,511,547,-108
0,-356,15640,256,594,-99
0,-324,15704,511,577,-92
0,-360,15700,511,595,-68
0,-336,15740,511,553,-95
0,-368,15660,511,580,-64
0,-340,15672,511,555,-93
0,-424,15964,256,544,-74
0,-316,15652,511,563,-92
0,-364,15680,511,583,-90
0,-404,15944,256,577,-73
0,-392,15648,511,563,-109
0,-328,15656,511,573,-89
0,-352,15880,256,589,-102
0,-376,15932,256,573,-92
0,-352,15940,256,560,-104
0,-320,15920,256,571,-81
0,-360,15676,511,583,-78
0,-444,15916,256,583,-115
0,-376,15656,511,571,-108
0,-336,15680,511,577,-44
255,-332,15904,256,589,-89
0,-340,15656,511,565,-104
0,-340,15668,511,589,-119
0,-336,15636,511,588,-102
255,-344,15668,511,571,-91
0,-632,15860,511,569,-110
0,-384,15644,511,572,-98
0,-404,15944,256,563,-64
0,-324,15660,511,581,-101
0,-400,15916,256,551,-106
0,-392,15676,511,554,-87
0,-368,15632,511,564,-96
0,-396,15652,511,569,-88
0,-368,15900,256,580,-96
0,-364,15640,511,565,-96
0,-360,15704,511,598,-87
0,-352,15656,511,577,-100
0,-332,15632,511,570,-108
0,-416,15656,511,563,-87
0,-392,15912,256,600,-110
0,-360,15672,511,597,-116
255,-396,15660,511,590,-81
0,-300,15888,256,576,-105
0,-356,15900,256,579,-59
0,-400,15624,511,580,-105
0,-280,15648,511,614,-76
0,-384,15720,511,565,-87
0,-392,15628,511,564,-84
0,-428,15884,256,575,-123
0,-408,15932,256,569,-77
0,-344,15644,511,585,-96
255,-364,15716,511,544,-97
0,-336,15648,511,575,-116
0,-364,15624,511,562,-64
0,-388,15672,511,581,-61
0,-344,15656,256,573,-88
0,-328,15916,256,556,-115
0,-324,15888,511,553,-115
0,-376,15960,256,577,-85
0,-324,15892,256,556,-92
0,-372,15932,256,579,-75
0,-324,15688,256,589,-112
0,-364,15648,511,585,-82
0,-304,15884,256,582,-104
0,-372,15632,511,559,-74
0,-368,15732,511,557,-98
0,-368,15644,511,586,-115
0,-408,15660,511,571,-121
0,-408,15676,511,587,-74
0,-384,15676,511,601,-84
255,-312,15676,511,555,-95
0,-420,15680,511,567,-93
0,-328,15960,256,581,-92
0,-360,15932,256,592,-105
0,-628,16088,256,586,-106
0,-340,15660,511,574,-122
0,-336,15632,511,578,-63
0,-300,15916,256,579,-78
255,-404,15640,511,594,-58
0,-328,15644,511,578,-91
0,-296,15672,511,576,-125
0,-316,15640,511,554,-78
0,-360,15632,511,586,-100
0,-356,15964,256,568,-92
0,-272,15680,511,574,-81
0,-300,15908,256,574,-115
0,-288,15916,256,585,-116
0,-336,15664,511,582,-74
0,-368,15908,256,575,-88
0,-348,15904,256,590,-91
0,-288,15704,511,582,-62
0,-336,15664,511,589,-90
0,-360,15668,511,575,-115
0,-396,15884,256,563,-97
0,-348,15660,511,574,-86
0,-336,15932,256,576,-113
0,-324,15668,511,547,-76
0,-332,15692,511,565,-73
0,-300,15952,256,566,-102
0,-320,15664,511,569,-85
0,-372,15648,511,607,-94
0,-384,15684,511,579,-89
0,-344,15744,511,593,-104
0,-344,15920,256,566,-106
0,-356,15888,256,590,-91
0,-324,15952,256,573,-105
0,-332,15900,256,575,-81
0,-364,15708,511,596,-87
0,-376,15624,511,588,-67
0,-392,15928,256,576,-107
0,-308,15964,256,572,-123
0,-588,15864,511,573,-106
0,-376,15696,511,593,-85
0,-260,15916,256,597,-117
0,-348,15904,256,601,-79
0,-352,15960,256,579,-98
0,-380,15964,256,556,-114
0,-668,15868,511,604,-88
0,-388,15900,256,564,-99
0,-352,15908,256,579,-92
0,-336,15740,511,566,-104
0,-368,15904,256,589,-117
0,-332,15640,511,559,-75
0,-672,15860,511,557,-115
0,-352,15968,256,551,-85
0,-596,15868,511,590,-92
0,-376,15920,256,549,-99
0,-368,15660,511,571,-55
0,-324,15952,256,579,-86
0,-308,15984,256,583,-81
0,-352,15660,511,564,-103
255,-360,15912,256,588,-96
0,-592,15868,511,581,-87
0,-344,15908,256,589,-93
0,-300,15672,511,569,-92
0,-372,15892,256,570,-114
0,-388,15916,256,584,-58
0,-372,15668,511,597,-92
0,-348,15664,511,565,-86
0,-360,15992,256,578,-84
0,-392,15644,511,558,-72
0,-640,15856,511,581,-119
0,-340,15908,256,596,-106
0,-324,15656,511,591,-70
255,-396,15712,511,577,-98
0,-336,15644,511,571,-95
0,-388,15692,511,562,-83
255,-340,15712,511,551,-73
0,-360,15908,256,591,-92
0,-396,15660,511,560,-91
0,-384,15948,256,568,-86
0,-404,15940,256,563,-97
0,-428,15644,511,559,-121
255,-632,16124,256,567,-77
0,-372,15660,511,578,-92
0,-372,15644,511,576,-54
0,-376,15912,256,580,-106
255,-348,15716,511,593,-108
0,-340,15644,511,546,-100
0,-408,15672,511,561,-108
0,-356,15640,511,575,-115
0,-400,15896,256,580,-106
0,-312,15664,511,569,-108
0,-368,15892,256,581,-77
0,-572,16116,256,559,-97
0,-380,15672,256,563,-82
0,-328,15656,511,564,-101
0,-632,15864,511,560,-97
0,-388,15924,511,576,-95
0,-444,15624,511,551,-91
0,-304,15924,256,569,-116
0,-320,15660,511,559,-108
0,-324,15924,256,558,-82
0,-360,15880,256,568,-117
0,-332,15660,511,562,-91
255,-628,16124,256,574,-91
0,-328,15692,511,585,-91
0,-376,15636,511,574,-82
0,-404,15620,511,582,-110
0,-356,15640,511,561,-91
0,-376,15948,256,575,-97
0,-352,15644,256,576,-114
0,-356,15652,511,586,-106
0,-360,15660,511,565,-111
0,-376,15676,511,568,-105
0,-356,15952,256,571,-96
0,-368,15684,511,594,-59
0,-344,15908,256,586,-69
0,-408,15924,256,593,-82
0,-396,15912,256,594,-102
0,-412,15716,511,579,-58
0,-356,15732,511,583,-107
0,-340,15704,511,593,-83
255,-324,15908,256,538,-80
0,-344,15704,511,574,-104
255,-384,15940,256,570,-91
0,-308,15936,256,581,-81
0,-380,15908,256,567,-97
0,-392,15932,256,580,-94
0,-376,15692,511,575,-86
0,-380,15876,256,563,-105
0,-320,15692,511,576,-120
0,-320,15944,256,587,-90
0,-392,15644,511,572,-100
0,-312,15624,511,575,-87
0,-388,15688,511,570,-121
0,-404,15892,256,575,-111
0,-340,15700,511,556,-126
0,-344,15652,511,588,-91
0,-372,15672,511,590,-93
0,-352,15880,256,591,-81
255,-332,15932,256,584,-100
0,-396,15952,256,562,-108
0,-356,15948,256,597,-78
0,-388,15660,511,589,-98
0,-344,15628,511,592,-72
0,-336,15980,256,579,-115
0,-320,15928,256,578,-94
0,-356,15660,511,558,-75
0,-320,15664,511,587,-82
0,-388,15648,511,589,-78
0,-372,15624,511,591,-111
255,-288,15616,511,569,-94
0,-344,15668,511,599,-87
0,-348,15956,256,617,-106
0,-376,15684,511,560,-98
0,-408,15628,511,576,-95
0,-344,15640,511,599,-110
0,-636,15856,511,576,-84
0,-332,15952,256,551,-100
0,-348,15924,256,565,-85
0,-324,15652,511,575,-74
0,-332,15692,511,595,-109
0,-348,15652,511,554,-104
0,-380,15880,256,594,-66
0,-296,15688,511,592,-127
0,-336,15648,511,570,-55
0,-300,15676,511,573,-73
0,-360,15656,511,603,-95
0,-272,15936,256,601,-87
0,-296,15672,511,557,-112
0,-352,15664,511,594,-118
0,-348,15660,511,591,-93
255,-356,15892,256,574,-78
0,-344,15620,511,557,-107
0,-364,15956,256,586,-106
0,-368,15708,511,595,-90
0,-396,15620,511,574,-112
0,-400,15692,511,548,-94
0,-300,15692,511,573,-79
0,-356,15904,256,562,-90
0,-364,15904,256,579,-70
0,-316,15644,511,562,-126
0,-316,15688,511,598,-90
0,-392,15636,511,570,-96
0,-372,15940,256,582,-98
0,-372,15920,256,568,-107
0,-572,15852,511,561,-90
0,-396,15624,511,582,-85
0,-368,15944,511,590,-105
0,-352,15696,511,562,-71
0,-388,15672,511,584,-115
0,-380,15676,511,577,-102
0,-332,15672,511,562,-69
0,-308,15712,511,581,-85
0,-352,15632,511,597,-80
0,-368,15696,511,574,-81
0,-400,15656,511,535,-101
0,-328,15648,511,579,-72
0,-324,15640,511,585,-105
0,-324,15880,256,549,-119
0,-400,15936,256,593,-64
0,-400,15640,511,571,-109
0,-336,15660,511,578,-50
0,-368,15664,511,572,-67
0,-368,15888,256,563,-96
0,-368,15652,511,575,-107
0,-672,15868,511,590,-56
0,-328,15660,511,576,-102
0,-380,15680,511,576,-99
0,-360,15908,256,575,-94
0,-324,15640,511,565,-88
0,-316,15620,511,599,-116
0,-296,15900,256,579,-116
255,-364,15936,256,563,-136
0,-316,15692,511,570,-90
255,-348,15940,256,585,-97
0,-348,15708,511,574,-81
255,-356,15640,511,587,-101
0,-376,15976,256,578,-77
0,-356,15660,511,567,-88
255,-372,15628,511,581,-71
0,-336,15672,511,569,-93
0,-412,15916,256,576,-95
0,-380,15648,511,582,-83
0,-344,15648,511,595,-78
0,-280,15680,511,569,-109
0,-424,15920,256,563,-99
0,-304,15648,511,580,-97
255,-584,15868,511,587,-107
0,-344,15632,511,562,-91
255,-388,15656,511,560,-110
0,-372,15916,256,589,-105
0,-360,15688,511,544,-91
255,-364,15876,256,580,-123
0,-640,15860,511,577,-71
0,-328,15664,511,564,-102
0,-324,15904,256,579,-102
0,-280,15648,511,575,-69
0,-348,15904,256,554,-100
0,-372,15624,511,556,-120
0,-320,15644,511,579,-88
0,-364,15996,256,560,-117
0,-384,15724,511,559,-91
0,-336,15908,256,581,-82
0,-348,15912,256,563,-85
0,-336,15636,511,580,-73
0,-380,15700,511,588,-85
0,-348,15656,511,568,-101
0,-348,15668,511,556,-71
0,-388,15708,256,563,-115
0,-392,15676,511,592,-90
0,-364,15956,256,616,-82
0,-412,15712,511,571,-103
0,-344,15908,256,573,-102
255,-372,15972,256,554,-104
0,-376,15620,511,553,-109
0,-320,15948,256,564,-99
256,-500,15940,256,590,-92
0,-392,15660,511,589,-112
0,-344,15908,256,576,-88
0,-364,15644,511,578,-103
0,-392,15676,511,598,-101
0,-300,15624,256,560,-92
0,-352,15648,511,578,-96
0,-352,15648,511,567,-97
0,-372,15924,256,582,-82
0,-408,15932,256,557,-94
0,-332,15924,256,600,-137
0,-396,15948,256,595,-69
0,-380,15676,511,603,-111
0,-296,15644,511,614,-101
0,-384,15636,511,599,-79
0,-384,15692,511,547,-118
0,-380,15648,511,575,-74
0,-372,15692,511,584,-109
0,-372,15664,511,587,-99
0,-404,15960,256,585,-76
0,-352,15688,511,581,-102
0,-404,15920,256,591,-99
0,-388,15672,511,575,-101
0,-380,15936,256,610,-100
0,-348,15908,256,563,-73
0,-404,15684,511,566,-96
255,-312,15656,511,577,-102
0,-368,15724,511,581,-99
0,-448,15892,256,552,-88
0,-408,15712,511,545,-106
0,-308,15964,256,581,-90
0,-572,15860,511,574,-95
0,-368,15704,511,570,-96
0,-336,15680,511,583,-113
0,-304,15636,511,589,-74
0,-372,15920,256,545,-81
0,-332,15904,256,567,-73
0,-316,15640,511,586,-60
0,-332,15652,511,570,-108
0,-332,15968,256,556,-78
0,-352,15620,511,551,-78
0,-356,15668,511,596,-93
255,-340,15728,511,570,-140
0,-640,16120,256,561,-84
0,-396,15672,511,569,-87
0,-360,15880,256,568,-115
0,-372,15672,511,570,-106
0,-276,15656,511,568,-94
0,-408,15628,511,565,-120
0,-348,15660,511,547,-100
0,-416,15920,256,566,-123
0,-356,15932,256,590,-101
0,-384,15904,256,607,-78
0,-420,15936,256,562,-87
255,-336,15644,511,563,-87
255,-336,15644,511,560,-80
0,-340,15632,511,564,-88
0,-372,15664,511,569,-87
0,-412,15644,511,556,-97
0,-400,15888,256,560,-88
0,-320,15664,511,569,-110
255,-364,15980,256,587,-60
0,-360,15692,511,597,-124
0,-396,15640,511,560,-73
0,-404,15632,511,573,-75
0,-352,15956,256,571,-129
256,-508,15644,511,589,-118
0,-312,15624,511,573,-95
0,-368,15648,511,597,-104
0,-384,15936,256,579,-76
0,-336,15676,256,546,-54
0,-324,15712,511,550,-114
0,-392,15688,511,586,-93
0,-356,15620,511,559,-123
0,-336,15924,256,566,-65
0,-388,15652,511,576,-109
0,-404,15656,511,576,-75
0,-332,15904,256,591,-93
0,-368,15900,256,575,-106
0,-392,15696,511,573,-70
0,-360,15952,256,573,-115
0,-368,15660,511,574,-92
0,-340,15664,511,563,-103
0,-380,15620,511,583,-108
0,-380,15624,511,553,-83
0,-424,15932,256,541,-69
0,-600,16104,256,562,-92
0,-316,15940,256,572,-96
0,-324,15676,511,573,-76
0,-392,15708,511,572,-105
0,-336,15688,511,595,-82
0,-384,15708,511,578,-70
0,-336,15656,511,580,-104
0,-304,15712,511,569,-107
255,-336,15676,511,564,-66
0,-348,15624,511,575,-93
0,-408,15880,256,561,-111
0,-360,15932,256,586,-108
0,-316,15636,511,560,-111
0,-372,15960,256,572,-99
0,-340,15668,511,589,-102
0,-400,15916,256,578,-109
0,-356,15936,256,590,-85
0,-352,15660,511,591,-77
0,-364,15644,511,580,-102
0,-368,15680,511,599,-100
0,-412,15624,511,589,-125
0,-380,15656,511,553,-84
0,-336,15680,511,572,-70
0,-384,15940,256,555,-109
0,-356,15648,511,595,-65
0,-316,15676,511,603,-119
0,-368,15916,256,574,-95
0,-380,15928,256,569,-100
255,-388,15660,511,570,-72
0,-360,15740,511,586,-97
0,-388,15664,511,570,-86
255,-412,15948,256,600,-81
0,-432,15904,256,561,-94
0,-292,15648,511,564,-100
0,-368,15916,256,588,-97
0,-368,15688,256,586,-102
0,-676,15860,511,585,-76
0,-356,15720,511,580,-84
255,-380,15664,511,554,-100
0,-352,15900,256,592,-59
0,-384,15680,511,583,-99
0,-380,15684,511,577,-61
0,-312,15616,511,580,-104
0,-428,15660,511,574,-89
0,-368,15692,511,567,-87
0,-344,15692,256,572,-100
0,-356,15692,511,568,-65
0,-376,15908,256,540,-116
0,-376,15708,511,584,-95
0,-368,15692,511,585,-97
0,-340,15664,511,566,-79
0,-344,15896,256,555,-80
0,-352,15924,256,559,-107
0,-364,15652,511,595,-74
0,-640,16116,256,572,-81
0,-372,15912,256,590,-67
0,-324,15708,511,561,-106
255,-356,15704,511,574,-90
0,-352,15684,511,569,-95
0,-420,15980,256,574,-111
255,-316,15616,511,588,-95
0,-356,15640,511,593,-96
0,-384,15620,511,558,-102
0,-368,15676,511,583,-100
0,-376,15672,511,589,-105
0,-364,15684,256,591,-85
0,-316,15624,511,537,-105
0,-316,15968,256,594,-95
0,-368,15616,511,576,-76
0,-380,15700,256,571,-79
0,-312,15684,511,565,-121
255,-344,15620,511,602,-99
0,-352,15632,511,550,-129
0,-312,15936,256,569,-82
0,-388,15904,256,594,-68
0,-376,15928,256,581,-89
0,-396,15944,256,588,-91
0,-328,15660,511,587,-86
255,-356,15656,511,604,-89
0,-360,15700,511,570,-67
0,-576,15864,511,587,-95
0,-368,15668,511,583,-94
0,-376,15660,511,572,-78
0,-316,15652,511,588,-124
0,-320,15676,511,578,-103
0,-380,15920,256,563,-63
0,-356,15664,511,590,-103
0,-332,15616,511,567,-95
0,-400,15672,511,573,-105
0,-300,15896,256,563,-94
0,-396,15944,256,558,-112
0,-372,15620,511,591,-87
0,-412,15924,256,573,-85
0,-296,15632,511,557,-79
0,-292,15700,511,539,-110
0,-336,15884,256,575,-72
0,-328,15692,511,569,-91
0,-400,15888,256,567,-86
255,-344,15688,511,572,-84
0,-372,15700,511,564,-90
0,-416,15924,256,569,-87
0,-324,15648,511,572,-90
0,-292,15908,256,579,-58
0,-376,15944,256,558,-100
0,-392,15876,256,559,-93
0,-336,15652,511,561,-102
0,-428,15676,511,557,-102
0,-388,15676,511,539,-97
0,-352,15652,511,572,-109
0,-324,15660,511,596,-114
0,-268,15620,511,547,-96
0,-392,15676,511,578,-100
0,-340,15672,256,576,-114
0,-328,15720,511,579,-78
0,-384,15644,511,577,-99
0,-432,15656,511,573,-86
0,-380,15684,511,584,-61
0,-328,15692,511,581,-94
0,-420,15904,256,546,-134
0,-380,15912,256,557,-96
0,-624,16124,256,578,-72
0,-344,15924,256,593,-96
0,-312,15872,256,618,-113
0,-408,15740,511,593,-91
255,-308,15668,511,589,-81
0,-368,15968,256,593,-85
0,-372,15632,511,570,-86
0,-320,15644,511,557,-88
0,-280,15720,511,557,-109
0,-344,15892,256,560,-72
0,-376,15672,511,576,-136
0,-388,15672,256,590,-68
0,-360,15980,256,578,-99
0,-412,15976,256,575,-103
0,-324,15616,511,582,-71
255,-376,15700,511,605,-112
0,-300,15656,511,572,-110
0,-412,15920,256,571,-94
0,-324,15668,511,580,-90
0,-360,15640,511,577,-85
0,-308,15944,256,593,-120
0,-304,15624,511,588,-92
0,-408,15728,511,557,-73
0,-336,15684,511,596,-108
0,-376,15956,256,578,-62
0,-336,15900,256,554,-90
0,-396,15696,511,564,-111
0,-364,15700,511,601,-80
0,-364,15672,511,563,-94
255,-324,15908,256,576,-81
0,-380,15668,511,567,-76
0,-300,15888,256,553,-114
0,-616,16116,256,588,-134
0,-396,15952,256,553,-55
0,-372,15920,256,578,-70
0,-368,15968,256,581,-81
0,-364,15880,256,598,-104
0,-356,15908,256,580,-118
0,-624,15840,511,596,-102
0,-268,15896,256,574,-113
0,-348,15680,511,572,-59
0,-340,15656,511,570,-106
0,-392,15664,511,540,-116
0,-360,15628,511,579,-94
0,-336,15620,511,571,-95
0,-400,15880,256,570,-118
0,-412,16008,256,584,-100
255,-328,15720,511,568,-99
0,-360,15884,256,541,-53
0,-312,15680,511,559,-134
0,-376,15640,256,563,-96
0,-352,15636,511,581,-66
0,-388,15728,511,597,-91
255,-308,15692,511,582,-94
0,-356,15688,511,572,-69
0,-340,15676,511,555,-78
0,-600,15860,511,564,-101
0,-356,15932,256,577,-90
0,-344,15696,511,529,-86
0,-436,15620,511,590,-78
0,-420,15904,256,597,-82
0,-372,15888,256,563,-74
255,-384,15652,511,578,-84
0,-368,15692,511,581,-90
0,-288,15688,511,573,-98
0,-348,15664,511,572,-82
0,-352,15692,511,582,-112
0,-308,15692,511,584,-72
0,-388,15724,511,585,-115
0,-336,15676,511,588,-87
0,-364,15920,256,581,-77
0,-396,15676,511,583,-89
0,-356,15628,511,596,-106
0,-360,15688,511,616,-90
0,-356,15700,511,591,-115
0,-568,16124,256,557,-79
0,-376,15644,511,576,-82
0,-328,15684,511,596,-92
0,-392,15700,256,561,-98
0,-356,15616,511,579,-109
0,-340,15680,511,566,-120
0,-384,15904,256,571,-92
0,-368,15936,256,589,-124
0,-348,15892,256,570,-82
0,-356,15956,256,573,-94
0,-384,15660,511,580,-81
0,-628,15824,256,586,-89
0,-336,15956,256,575,-104
0,-364,15668,511,572,-84
0,-352,15664,511,566,-96
0,-388,15640,511,566,-79
0,-344,15664,511,592,-74
0,-292,15688,511,587,-139
0,-400,15688,511,561,-131
0,-300,15624,511,582,-97
0,-308,15964,256,595,-117
0,-372,15700,511,579,-77
0,-356,15924,256,571,-105
0,-340,15680,511,566,-80
0,-324,15896,256,587,-101
0,-392,15676,511,581,-100
0,-344,15976,256,588,-100
0,-364,15904,256,580,-84
0,-316,15672,511,569,-115
255,-312,15916,256,592,-74
0,-328,15668,511,553,-108
0,-348,15712,511,580,-84
0,-388,15976,256,584,-107
0,-376,15676,511,588,-105
255,-296,15692,511,588,-117
0,-364,15664,511,611,-118
0,-336,15876,256,565,-96
0,-344,15676,511,564,-91
0,-392,15924,256,591,-120
0,-408,15624,511,568,-118
0,-356,15968,256,573,-116
0,-364,15680,511,567,-79
0,-412,15700,511,560,-128
0,-332,15960,256,585,-88
0,-416,15620,511,583,-60
0,-348,15660,511,570,-135
0,-348,15708,511,547,-116
0,-288,15704,256,599,-86
0,-360,15732,511,596,-117
0,-332,15716,511,557,-72
0,-364,15900,256,569,-81
0,-328,15648,511,574,-78
0,-360,15656,511,557,-79
0,-380,15624,511,575,-91
0,-404,15932,256,588,-90
0,-388,15712,511,568,-73
0,-320,15688,511,579,-82
0,-356,15660,511,576,-117
0,-332,15676,511,603,-128
0,-412,15912,256,579,-128
0,-324,15936,256,543,-119
0,-364,15688,511,577,-78
0,-432,15884,256,592,-94
0,-448,15724,511,570,-103
0,-356,15672,511,568,-77
0,-384,15916,256,583,-115
0,-588,16116,256,585,-82
255,-424,15664,511,574,-99
0,-392,15980,256,552,-76
0,-340,15628,511,589,-65
0,-372,15664,511,590,-120
0,-364,15920,256,601,-87
0,-380,15648,511,567,-106
0,-360,15628,511,544,-84
0,-576,15864,511,576,-108
0,-368,15960,256,541,-79
0,-400,15924,256,579,-132
0,-356,15648,511,563,-76
255,-368,15684,511,573,-80
0,-364,15952,256,590,-88
0,-356,15644,511,580,-112
0,-340,15644,511,577,-92
0,-300,15688,256,579,-83
0,-400,15648,511,572,-103
0,-396,15620,511,586,-110
0,-396,15692,511,598,-74
0,-400,15728,511,570,-90
0,-376,15932,256,581,-117
0,-408,15692,511,571,-71
0,-324,15708,511,577,-115
0,-396,15624,511,591,-106
0,-316,15656,511,554,-80
0,-324,15740,511,574,-119
0,-340,15964,256,578,-88
255,-392,15680,511,588,-100
0,-376,15656,511,559,-89
0,-260,15924,256,599,-92
0,-416,15680,511,572,-75
255,-392,15672,511,579,-121
0,-284,15656,511,591,-79
0,-356,15904,256,570,-99
0,-368,15964,256,582,-80
0,-332,15676,511,553,-105
0,-304,15660,511,591,-97
0,-640,15840,511,578,-119
0,-312,15652,511,564,-95
0,-624,15864,511,591,-103
255,-324,15952,256,589,-61
0,-600,16124,256,570,-106
0,-312,15624,511,582,-108
0,-348,15700,511,586,-92
0,-360,15636,511,602,-97
0,-380,15632,511,567,-88
0,-340,15620,511,589,-90
0,-348,15640,511,597,-109
0,-312,15668,511,574,-42
0,-400,15644,511,570,-102
0,-432,15900,256,568,-106
0,-376,15664,511,575,-76
0,-340,15668,511,588,-46
0,-340,15944,256,586,-121
0,-344,15708,511,552,-80
0,-336,15620,511,582,-105
0,-360,15676,511,581,-70
0,-396,15720,511,558,-90
0,-336,15944,256,580,-72
0,-344,15916,256,592,-65
0,-380,15948,256,583,-114
0,-652,15844,511,572,-115
0,-352,15700,511,601,-103
0,-340,15712,511,592,-121
0,-312,15964,256,592,-128
0,-408,15668,511,585,-88
0,-384,15724,511,594,-81
0,-588,15860,511,576,-77
0,-396,15876,256,577,-119
0,-348,15896,256,570,-75
0,-344,15884,256,573,-100
0,-368,15912,256,566,-65
0,-392,15888,256,599,-86
0,-640,15820,511,571,-121
0,-364,15628,511,557,-126
255,-340,15932,256,557,-75
0,-328,15696,511,588,-91
0,-336,15728,511,607,-104
255,-304,15680,511,581,-85
0,-372,15656,511,558,-107
0,-336,15688,511,554,-88
0,-400,15668,511,591,-66
0,-388,15920,256,600,-85
0,-360,15676,511,545,-79
0,-332,15648,511,561,-76
0,-328,15660,511,567,-101
0,-396,15944,256,600,-113
0,-328,15664,511,568,-85
0,-676,15848,511,579,-94
0,-308,15980,256,556,-81
0,-348,15640,511,564,-90
0,-344,15644,511,570,-126
0,-312,15904,256,558,-91
0,-640,16116,256,593,-95
0,-340,15936,256,595,-65
0,-396,15628,511,581,-71
0,-380,15632,511,585,-95
0,-332,15784,511,588,-87
0,-304,15700,511,585,-70
0,-344,15616,511,566,-100
0,-320,15700,511,596,-81
0,-576,15828,511,585,-103
0,-356,15936,256,580,-84
0,-372,15632,511,546,-81
0,-408,15664,511,571,-100
255,-356,15648,511,613,-122
0,-352,15956,256,589,-90
0,-320,15696,511,552,-79
0,-336,15692,511,577,-116
0,-408,15908,256,579,-100
0,-400,15944,256,592,-111
255,-328,15912,256,565,-93
0,-352,15660,511,582,-119
0,-356,15652,511,572,-115
0,-340,15912,256,586,-124
255,-304,15680,511,556,-91
0,-332,15664,511,568,-67
0,-316,15884,256,604,-96
0,-388,15928,256,555,-108
0,-316,15932,256,560,-97
0,-352,15720,256,578,-96
0,-368,15672,511,583,-140
0,-304,15684,511,558,-113
0,-336,15644,511,594,-100
0,-308,15640,511,581,-77
0,-348,15896,256,578,-78
0,-388,15692,511,583,-86
0,-396,15680,511,595,-94
0,-348,15652,511,597,-125
0,-356,15676,511,556,-114
0,-336,15648,511,596,-101
0,-320,15896,256,580,-102
0,-320,15680,511,582,-79
0,-400,15908,256,573,-102
0,-360,15972,256,583,-78
0,-400,15932,256,562,-118
0,-356,15668,511,576,-110
0,-372,15876,256,583,-92
0,-352,15924,256,563,-130
0,-372,15636,511,571,-113
0,-364,15944,256,575,-67
0,-364,15680,511,565,-101
0,-364,15632,511,587,-110
0,-360,15900,256,578,-93
0,-336,15652,511,574,-79
0,-368,15644,511,548,-112
0,-368,15684,511,605,-75
0,-356,15976,256,576,-77
0,-340,15644,511,585,-87
255,-356,15656,511,589,-106
0,-380,15628,511,588,-91
0,-364,15680,511,584,-120
0,-356,15716,511,569,-49
0,-324,15672,511,580,-114
0,-380,15880,256,602,-62
255,-348,15916,256,565,-77
0,-352,15980,256,585,-66
0,-356,15708,511,552,-60
0,-416,15928,256,570,-123
0,-316,15908,256,580,-71
0,-360,15652,511,555,-68
0,-344,15760,511,567,-95
0,-408,15940,256,594,-77
255,-560,16080,256,577,-90
0,-568,15868,511,586,-100
0,-396,15676,511,586,-102
0,-368,15912,256,551,-73
0,-376,15920,256,596,-126
0,-396,15616,511,613,-108
0,-380,15700,511,573,-88
0,-360,15692,511,591,-115
0,-356,15960,256,563,-109
0,-364,15712,511,601,-49
0,-628,15852,511,591,-79
0,-624,15864,511,577,-86
0,-376,15644,511,586,-100
0,-376,15960,256,591,-124
0,-312,15696,511,556,-87
0,-352,15924,256,608,-133
0,-332,15724,511,570,-122
0,-352,15632,511,565,-92
0,-360,15652,511,585,-81
0,-376,15660,511,588,-85
0,-316,15708,511,571,-74
0,-412,15940,256,564,-106
0,-672,15864,511,582,-98
255,-620,16088,256,566,-72
0,-412,15916,256,581,-124
0,-360,15944,256,570,-108
255,-604,15864,511,571,-88
0,-356,15636,511,563,-108
0,-372,15908,256,562,-82
0,-344,15960,256,559,-118
0,-392,15700,511,601,-66
0,-364,15880,256,577,-103
0,-372,15680,511,567,-90
0,-384,15912,256,587,-93
0,-368,15664,511,584,-106
0,-376,15700,511,563,-55
255,-324,15664,511,573,-71
0,-344,15900,256,579,-108
0,-316,15892,256,585,-101
0,-320,15660,511,564,-87
0,-336,15948,256,551,-82
0,-372,15912,256,592,-101
0,-348,15648,511,576,-137
0,-352,15960,256,579,-115
0,-372,15924,256,598,-77
0,-332,15980,256,554,-76
0,-320,15944,256,570,-66
0,-360,15652,511,562,-103
0,-392,15660,511,562,-89
0,-352,15660,511,535,-91
0,-416,15668,511,577,-99
0,-412,15624,511,594,-71
0,-396,15676,511,609,-74
0,-628,15860,511,560,-104
0,-320,15716,511,583,-104
0,-332,15648,511,562,-85
0,-336,15656,511,582,-95
0,-380,15680,511,555,-102
0,-368,15664,511,616,-103
0,-328,15948,256,572,-72
0,-400,15920,256,572,-69
0,-388,15668,511,573,-83
0,-308,15940,256,589,-113
0,-376,15716,511,587,-87
255,-388,15636,511,580,-91
0,-416,15684,511,572,-114
0,-356,15648,511,613,-79
0,-596,15856,511,589,-112
0,-356,15616,511,556,-103
0,-352,15988,256,556,-82
0,-396,15656,511,587,-92
0,-352,15932,256,602,-73
0,-372,15644,511,584,-85
0,-300,15696,511,577,-68
0,-392,15936,256,572,-92
0,-400,15652,511,556,-100
0,-404,15684,511,566,-77
0,-372,15700,511,575,-101
0,-344,15968,256,583,-92
0,-356,15944,256,558,-104
0,-332,15680,511,560,-98
255,-336,15676,511,571,-69
255,-360,15672,511,599,-81
0,-376,15680,511,554,-91
0,-608,15856,256,588,-69
0,-356,15648,511,568,-93
0,-396,15664,511,559,-81
0,-300,15928,256,578,-71
0,-380,15628,511,555,-102
0,-340,15684,511,571,-100
0,-332,15684,511,597,-109
0,-344,15676,511,605,-104
0,-380,15648,511,551,-102
255,-340,15688,511,554,-105
255,-396,15676,511,594,-74
0,-340,15736,511,593,-39
0,-344,15904,256,582,-102
0,-380,15660,511,547,-126
0,-380,15692,256,615,-80
0,-332,15676,511,555,-84
0,-356,15660,511,585,-92
0,-364,15644,511,567,-103
255,-352,15644,511,562,-71
0,-400,15692,511,565,-64
0,-312,15736,511,587,-91
0,-332,15640,511,592,-69
0,-348,15896,256,581,-90
0,-340,15964,256,568,-78
0,-412,15888,256,590,-89
0,-344,15896,256,586,-93
0,-380,15648,511,571,-134
0,-600,15836,511,578,-64
0,-340,15660,511,569,-107
0,-300,15636,511,621,-88
0,-404,15948,256,585,-81
0,-320,15680,256,547,-100
0,-336,15688,511,583,-115
0,-312,15672,511,570,-104
0,-344,15676,511,579,-62
0,-356,15672,511,564,-121
0,-336,15696,511,572,-88
0,-352,15656,511,586,-54
0,-300,15888,256,554,-102
255,-344,15892,256,560,-73
0,-348,15668,511,576,-70
0,-396,15948,256,605,-76
0,-360,15932,256,557,-80
0,-352,15900,256,565,-103
0,-436,15656,511,599,-80
0,-324,15628,511,561,-121
0,-400,15680,511,547,-88
0,-316,15668,511,584,-98
0,-416,15916,256,568,-122
0,-352,15648,511,546,-96
0,-348,15924,256,572,-88
0,-312,15704,511,589,-111
0,-412,15700,511,580,-100
0,-356,15676,511,581,-97
0,-616,15852,511,589,-123
0,-540,16088,256,568,-88
0,-380,15684,511,576,-85
0,-396,15728,511,593,-93
0,-396,15960,256,581,-70
0,-364,15648,511,555,-71
0,-624,15868,511,572,-81
0,-352,15656,511,574,-117
255,-356,15656,511,576,-87
0,-388,15976,256,574,-80
0,-344,15668,511,579,-89
255,-328,15624,256,587,-78
0,-636,15868,511,566,-97
0,-368,15960,256,578,-102
0,-372,15940,256,577,-68
0,-344,15704,511,574,-98
0,-356,15744,256,590,-109
0,-404,15640,511,568,-78
0,-376,15904,256,575,-74
0,-324,15700,511,581,-78
0,-344,15908,256,586,-82
255,-408,15968,256,564,-112
0,-368,15652,511,607,-58
0,-316,15636,511,595,-108
0,-408,15648,511,609,-112
0,-660,15868,511,569,-90
0,-364,15732,511,576,-108
0,-304,15668,511,559,-99
0,-412,15688,511,583,-133
0,-312,15968,511,607,-92
0,-312,15700,511,569,-91
0,-360,15724,511,592,-79
0,-572,16112,256,593,-104
0,-368,15628,511,567,-115
0,-368,15684,511,585,-109
0,-332,15648,511,557,-102
0,-404,15928,256,609,-88
255,-632,15868,511,585,-94
0,-360,15956,256,567,-95
0,-336,15656,511,565,-76
0,-364,15708,511,591,-77
0,-364,15664,511,584,-95
0,-332,15908,256,581,-109
255,-360,15928,256,578,-79
0,-304,15656,511,592,-103
0,-312,15688,511,551,-114
0,-420,15628,511,562,-80
0,-352,15888,256,590,-88
0,-324,15936,256,598,-105
0,-352,15664,256,588,-95
0,-324,15932,256,582,-75
0,-348,15672,511,579,-95
0,-368,15944,256,551,-96
0,-372,15672,511,572,-93
0,-424,15688,511,562,-102
0,-376,15892,256,564,-93
0,-304,15632,511,582,-100
0,-332,15928,256,581,-116
0,-364,15912,256,569,-93
0,-400,15644,511,569,-108
0,-416,15656,511,546,-120
0,-328,15696,511,576,-87
0,-344,15652,511,587,-92
255,-364,15664,511,569,-92
0,-332,15616,256,582,-95
0,-360,15648,511,574,-114
0,-352,15908,256,590,-85
0,-372,15916,256,576,-93
0,-296,16008,256,554,-95
0,-392,15684,511,598,-85
0,-384,15944,256,582,-127
0,-364,15664,511,566,-123
0,-376,15720,511,568,-115
0,-380,15916,256,598,-105
0,-376,15636,511,552,-106
0,-376,15696,511,584,-127
255,-376,15692,511,586,-88
0,-324,15892,256,567,-87
0,-356,15688,511,575,-101
0,-344,15936,256,591,-63
0,-360,15940,256,550,-93
0,-372,15684,511,572,-97
0,-396,15668,511,564,-93
0,-320,15660,511,560,-127
0,-376,15672,256,567,-85
0,-416,15640,511,563,-103
0,-384,15956,256,588,-107
0,-352,15944,511,548,-89
0,-360,15668,511,565,-112
0,-368,15948,256,595,-97
0,-592,16120,256,591,-107
0,-312,15652,511,549,-117
0,-312,15896,256,569,-91
0,-360,15652,511,544,-97
0,-340,15656,511,574,-70
0,-396,15920,256,585,-100
0,-316,15688,511,569,-144
0,-356,15716,256,569,-106
0,-352,15976,256,583,-89
0,-344,15972,256,557,-69
0,-328,15964,256,590,-114
0,-328,15956,256,563,-89
0,-364,15652,511,588,-87
0,-388,15660,511,571,-99
255,-628,16124,256,562,-84
255,-428,15988,256,583,-86
0,-336,15620,511,600,-108
0,-288,15696,511,576,-88
255,-348,15720,511,572,-94
0,-356,15748,511,573,-75
255,-304,15952,256,593,-72
0,-352,15696,511,596,-97
255,-344,15680,511,597,-83
0,-644,15828,511,575,-124
0,-396,15652,511,584,-123
0,-340,15652,511,586,-88
0,-340,15664,511,576,-88
0,-400,15972,256,569,-114
0,-336,15716,511,594,-87
0,-328,15904,256,546,-108
0,-344,15896,256,605,-125
0,-356,15664,511,556,-127
0,-428,15908,511,575,-79
0,-348,15932,256,571,-84
0,-316,15640,511,572,-79
0,-352,15712,511,565,-100
0,-316,15652,511,587,-101
0,-352,15660,511,598,-95
255,-388,15944,256,569,-97
0,-384,15920,256,583,-127
0,-612,16112,256,564,-88
255,-308,15676,511,553,-103
255,-368,15936,256,547,-95
0,-352,15660,511,557,-82
0,-364,15988,256,562,-101
0,-424,15944,256,598,-103
255,-332,15916,256,597,-113
0,-388,15672,256,559,-73
0,-384,15940,256,580,-97
0,-312,15672,511,566,-115
255,-344,15692,511,548,-64
0,-332,15952,256,579,-96
0,-360,15700,511,568,-104
0,-340,15964,256,574,-99
0,-376,15632,511,570,-98
0,-324,15948,256,595,-81
0,-348,15688,511,561,-104
0,-416,15676,511,571,-79
0,-408,15644,511,576,-132
0,-376,15652,511,577,-91
0,-292,15956,256,573,-130
0,-344,15992,256,582,-114
0,-356,15700,511,580,-111
0,-384,15660,511,553,-99
0,-372,15924,256,570,-80
0,-408,15704,511,576,-96
255,-364,15648,511,573,-128
0,-344,15660,511,549,-88
0,-380,15872,256,577,-104
0,-364,15700,511,565,-99
0,-352,15672,511,556,-129
0,-336,15972,256,588,-80
0,-332,15688,511,590,-110
0,-400,15624,511,584,-116
0,-344,15900,256,564,-96
0,-364,15656,511,583,-100
0,-364,15644,511,572,-68
0,-392,15680,511,577,-100
0,-356,15904,256,584,-47
0,-376,15908,256,566,-98
255,-384,15916,256,551,-118
0,-324,15936,256,577,-127
0,-588,15860,511,590,-84
0,-344,15904,256,562,-101
255,-288,15968,256,576,-61
0,-344,15936,256,564,-114
0,-336,15620,511,593,-85
255,-348,15664,511,575,-69
0,-352,15956,256,553,-96
255,-380,15940,256,597,-74
0,-288,15696,511,566,-66
0,-352,15680,511,576,-88
0,-336,15688,511,549,-91
0,-300,15652,511,603,-87
0,-280,15696,511,565,-80
0,-396,15652,511,594,-107
0,-348,15668,511,577,-88
0,-336,15692,511,585,-106
0,-368,15632,511,573,-67
0,-312,15684,511,579,-91
0,-660,15860,511,588,-75
255,-336,15964,256,573,-93
0,-368,15960,256,565,-101
0,-332,15616,511,601,-85
0,-348,15640,511,562,-115
0,-372,15884,256,533,-76
0,-276,15656,511,577,-104
0,-360,15732,511,590,-127
0,-416,15700,511,563,-17
0,-352,15692,511,566,-126
0,-372,15676,511,574,-99
0,-348,15876,256,593,-76
0,-320,15940,256,579,-78
0,-380,15620,511,566,-114
0,-340,15948,256,589,-102
0,-340,15696,511,569,-90
0,-624,15868,511,582,-109
0,-352,15968,256,578,-91
0,-372,15972,256,592,-73
0,-432,15644,511,582,-90
0,-316,15940,256,596,-64
0,-272,15644,511,588,-114
0,-360,15700,511,583,-109
0,-340,15712,511,584,-74
0,-308,15872,256,569,-88
0,-392,15684,511,571,-101
255,-400,15648,511,586,-91
0,-376,15964,256,590,-97
0,-380,15704,511,587,-99
0,-372,15908,256,592,-100
0,-360,15716,511,563,-83
0,-276,15660,511,579,-125
255,-280,15948,256,583,-106
0,-360,15692,511,546,-113
0,-384,15632,511,568,-118
255,-404,15936,256,574,-102
0,-352,15700,511,569,-107
255,-380,15912,256,600,-110
255,-368,15892,256,583,-73
0,-336,15668,511,576,-97
255,-388,15668,511,608,-122
0,-320,15676,511,554,-99
0,-388,15632,511,593,-88
0,-320,15664,511,598,-130
0,-308,15680,511,598,-63
256,-512,15696,511,594,-77
0,-308,15676,511,589,-72
0,-356,15944,256,570,-107
0,-316,15684,511,590,-104
0,-340,15636,511,577,-89
255,-336,15720,511,594,-101
255,-352,15684,511,593,-100
0,-400,15680,511,563,-125
0,-356,15956,256,563,-113
255,-364,15692,511,585,-102
0,-332,15944,256,601,-111
0,-320,15884,256,561,-114
0,-432,15924,256,569,-130
0,-388,15912,256,583,-100
0,-356,15628,511,588,-93
0,-340,15912,256,580,-110
0,-360,15640,511,573,-90
0,-320,15692,511,561,-53
255,-376,15696,511,573,-116
0,-360,15688,511,582,-85
0,-352,15936,256,556,-109
255,-320,15996,256,581,-105
0,-332,15772,511,593,-59
0,-360,15668,511,545,-95
0,-332,15992,256,587,-121
0,-576,15860,511,593,-89
0,-356,15716,256,571,-69
0,-344,15928,256,587,-93
0,-372,15684,511,562,-91
0,-320,15668,511,555,-82
0,-352,15912,256,566,-78
0,-352,15940,256,585,-87
0,-384,15912,256,548,-89
0,-372,15644,256,588,-70
0,-404,15616,511,566,-96
0,-384,15656,511,563,-91
0,-332,15652,511,605,-92
0,-352,15692,511,574,-72
0,-396,15900,256,607,-91
0,-356,15660,511,568,-70
255,-344,15676,511,596,-87
256,-496,15896,256,578,-100
0,-364,15676,511,565,-69
0,-372,15632,511,564,-114
255,-320,15700,511,612,-100
0,-600,16124,256,567,-107
255,-344,15656,511,583,-93
0,-388,15920,256,589,-92
0,-336,15652,511,583,-92
0,-360,15660,511,573,-104
0,-328,15688,511,571,-103
0,-392,15628,256,576,-78
255,-316,15676,511,611,-80
0,-432,15732,511,576,-90
0,-400,15664,511,585,-89
0,-336,15888,256,605,-82
0,-388,15672,511,555,-110
0,-344,15988,256,600,-103
0,-308,15896,256,554,-45
0,-320,15664,511,581,-70
255,-344,15672,256,576,-99
0,-376,15924,256,573,-92
0,-396,15668,511,586,-98
0,-328,15664,511,586,-85
0,-352,15700,511,571,-114
0,-372,15660,511,554,-100
0,-388,15696,511,569,-107
255,-412,15644,511,568,-82
0,-340,15912,256,599,-89
0,-304,15656,511,564,-120
0,-376,15700,511,591,-97
0,-364,15636,511,587,-84
0,-400,15872,256,590,-80
0,-344,15944,256,592,-61
0,-388,15948,256,565,-111
0,-328,15688,511,562,-60
0,-360,15940,256,595,-100
0,-344,15648,511,577,-104
0,-396,15660,511,567,-119
0,-360,15680,511,587,-74
0,-404,15632,511,577,-115
0,-332,15712,511,554,-122
0,-392,15640,511,593,-98
0,-340,15696,511,579,-104
0,-372,15652,511,582,-78
0,-412,15640,511,555,-90
255,-296,15696,511,558,-91
0,-332,15684,511,603,-104
0,-320,15660,511,571,-86
0,-388,15644,511,586,-107
0,-368,15908,256,591,-102
0,-376,15636,511,579,-102
0,-372,15888,256,565,-107
0,-376,15948,256,601,-80
0,-388,15652,511,584,-83
0,-352,15692,511,559,-100
0,-324,15620,511,576,-98
0,-396,15692,511,587,-118
0,-380,15664,511,579,-100
0,-308,15972,256,580,-106
0,-384,15696,511,562,-98
0,-368,15656,511,561,-75
0,-360,15692,511,588,-87
0,-360,15688,511,587,-73
0,-420,15884,256,551,-105
0,-396,15656,511,579,-67
0,-336,15924,256,560,-86
0,-372,15688,511,597,-119
0,-392,15640,511,591,-109
255,-372,15944,256,603,-90
0,-388,15684,511,587,-118
0,-376,15956,256,559,-91
255,-400,15952,256,564,-72
0,-316,15660,511,584,-85
255,-324,15912,256,584,-106
255,-356,15976,256,560,-67
0,-392,15940,256,591,-89
0,-556,15868,511,559,-108
0,-564,15836,511,572,-92
0,-340,15684,511,548,-60
0,-608,15868,511,599,-99
0,-368,15664,511,601,-117
0,-376,15920,256,570,-72
0,-388,15936,256,548,-89
255,-352,15688,511,611,-107
255,-388,15932,256,583,-114
0,-368,15732,511,552,-118
0,-364,15920,256,578,-85
0,-376,15652,511,563,-112
0,-392,15616,511,586,-96
0,-392,15904,256,592,-77
0,-284,15672,511,596,-109
0,-368,15676,511,568,-119
0,-340,15712,511,601,-88
0,-312,15664,511,586,-77
0,-400,15716,511,587,-81
0,-368,15636,511,562,-99
0,-388,15632,511,559,-76
0,-368,15940,256,603,-92
0,-344,15912,256,574,-106
0,-328,15680,511,561,-107
0,-376,15640,511,578,-94
0,-308,15932,256,573,-123
0,-364,15640,511,584,-80
0,-368,15704,511,578,-78
0,-300,15656,511,577,-109
0,-376,15916,256,569,-88
0,-568,15828,511,578,-125
0,-312,15660,511,600,-105
0,-316,15688,511,579,-89
0,-344,15996,256,567,-86
0,-340,16000,256,578,-58
255,-392,15692,511,573,-74
0,-608,15864,511,601,-119
255,-356,15704,511,578,-92
0,-372,15644,511,578,-84
0,-364,15656,511,579,-82
0,-396,15636,511,567,-92
255,-396,15632,511,579,-73
0,-352,15672,511,577,-79
0,-332,15944,256,586,-117
0,-368,15648,511,583,-106
0,-284,15668,511,593,-51
0,-380,15972,256,557,-80
255,-296,15688,511,577,-100
0,-368,15976,256,559,-105
0,-360,15724,511,566,-55
0,-344,15668,511,587,-90
0,-368,15932,256,591,-85
0,-372,15632,511,591,-104
0,-428,15704,511,596,-95
255,-368,15648,511,570,-99
0,-360,15664,511,578,-75
0,-416,15880,256,595,-83
0,-360,15660,511,603,-88
0,-648,16120,256,585,-103
0,-328,15920,256,600,-110
0,-364,15676,511,577,-93
0,-324,15668,511,561,-80
0,-368,15892,256,563,-55
0,-316,15684,511,589,-99
0,-404,15896,256,580,-115
0,-352,15912,256,585,-80
0,-356,15668,511,595,-110
0,-360,15676,511,575,-107
0,-400,15684,511,570,-96
0,-372,15724,511,584,-54
0,-340,15964,256,589,-105
0,-432,15656,511,576,-111
0,-356,15696,511,605,-80
0,-348,15884,256,571,-88
0,-312,15684,511,577,-91
0,-272,15664,511,588,-88
0,-360,15920,256,569,-101
0,-416,15616,511,593,-119
0,-388,15676,511,582,-80
0,-396,15632,511,569,-92
0,-368,15668,511,586,-93
0,-328,15912,256,579,-93
0,-372,15632,511,586,-84
0,-352,15656,511,576,-100
0,-404,15668,511,552,-88
0,-392,15976,256,571,-59
255,-336,15948,256,581,-117
0,-400,15668,511,584,-62
0,-324,15640,511,593,-89
0,-320,15884,256,590,-88
0,-388,15624,511,579,-82
0,-388,15680,511,595,-83
0,-400,15900,256,561,-109
0,-372,15628,511,600,-118
0,-320,15636,511,596,-93
0,-360,15736,511,554,-91
0,-356,15928,256,566,-96
0,-320,15724,511,590,-64
0,-336,15688,511,585,-113
0,-328,15712,511,570,-87
0,-336,15672,511,589,-76
0,-384,15920,256,573,-90
0,-380,15916,256,566,-93
0,-316,15948,256,587,-103
0,-392,15696,511,605,-68
0,-364,15932,256,575,-83
0,-436,15684,511,560,-115
0,-412,15724,511,591,-101
0,-384,15644,511,537,-126
0,-368,15652,511,562,-76
0,-384,15696,256,584,-114
0,-376,15656,511,555,-91
0,-296,15668,511,553,-135
0,-340,15892,256,587,-115
0,-348,15672,511,559,-103
0,-312,15624,511,593,-90
0,-552,15864,511,562,-109
0,-348,15704,511,570,-94
0,-336,15664,511,552,-105
0,-332,15660,511,587,-77
0,-324,15956,256,565,-90
0,-328,15648,511,605,-87
0,-376,15644,511,570,-78
0,-312,15640,511,571,-102
0,-328,15652,511,599,-139
0,-340,15936,256,578,-126
0,-324,15632,511,564,-102
0,-348,15688,511,571,-70
0,-396,15620,511,539,-62
0,-328,15916,256,588,-108
0,-340,15912,256,556,-92
0,-352,15908,256,556,-128
0,-456,15908,256,595,-94
0,-356,15624,511,596,-72
0,-356,15660,511,582,-125
0,-340,15904,256,549,-62
0,-292,15628,511,548,-113
0,-320,15716,511,580,-87
255,-284,15680,511,582,-52
0,-336,15932,256,552,-102
0,-576,15864,511,569,-93
0,-332,15876,256,584,-105
0,-352,15956,256,566,-89
0,-360,15932,256,587,-88
0,-344,15928,256,554,-115
0,-348,15692,511,583,-76
0,-364,15900,256,576,-108
0,-368,15668,511,577,-81
0,-376,15628,511,572,-85
0,-416,15640,511,576,-125
0,-408,16000,256,561,-128
255,-608,15868,511,578,-105
0,-372,15632,511,572,-59
0,-320,15912,256,587,-77
0,-408,15704,511,561,-104
0,-400,15892,256,567,-86
0,-396,15956,256,602,-101
0,-344,15712,511,567,-67
0,-420,15948,256,590,-111
0,-376,15736,511,581,-89
0,-632,16104,256,582,-98
0,-348,15732,511,566,-82
0,-352,15620,511,576,-114
255,-384,15680,511,561,-84
0,-364,15964,256,566,-128
255,-328,15944,256,592,-101
0,-356,15972,256,574,-100
0,-356,15952,256,590,-125
255,-340,15984,256,555,-112
0,-568,15868,511,575,-51
0,-372,15908,256,587,-106
0,-356,15908,256,585,-87
0,-328,15684,511,592,-95
0,-296,15880,256,582,-86
255,-332,15920,256,562,-110
0,-380,15896,256,584,-95
0,-324,15648,511,596,-108
0,-312,15692,511,583,-74
0,-324,15944,256,590,-98
0,-440,15684,511,585,-92
0,-352,15896,256,587,-74
0,-356,15672,511,576,-117
0,-332,15716,511,563,-92
0,-372,15944,256,537,-90
0,-392,15616,511,555,-99
0,-360,15920,256,575,-76
0,-588,15844,511,579,-93
0,-368,15888,256,577,-101
0,-336,15644,511,573,-101
255,-352,15924,256,570,-84
0,-340,15932,256,582,-105
0,-372,15948,256,575,-106
0,-352,15944,256,593,-77
0,-348,15936,256,550,-96
0,-376,15928,256,541,-74
0,-348,15624,511,584,-69
0,-340,15616,511,566,-86
0,-340,15916,256,543,-73
0,-356,15696,511,596,-117
0,-364,15916,256,587,-103
0,-396,15652,511,563,-117
0,-348,15664,511,567,-62
0,-416,15920,256,551,-121
0,-452,15668,511,573,-83
0,-356,15656,511,560,-88
0,-324,15908,256,586,-90
0,-356,15684,511,565,-69
0,-344,15740,511,570,-121
0,-280,15652,511,587,-99
0,-392,15656,511,585,-91
0,-648,15868,511,567,-100
0,-416,15920,256,580,-102
0,-336,15696,511,575,-86
0,-344,15960,256,569,-109
0,-344,15648,511,577,-110
