Ax,Ay,Az,Gx,Gy,Gz
0,-361,15645,511,576,-93
0,-372,15641,511,578,-97
0,-380,15896,256,574,-100
0,-367,15647,511,574,-105
0,-360,15649,511,578,-96
0,-354,15661,511,580,-99
0,-349,15671,511,575,-105
0,-352,15671,511,580,-93
0,-343,15654,511,577,-82
0,-360,15643,511,575,-76
0,-367,15671,511,573,-72
0,-372,15662,511,581,-79
0,-379,15662,511,577,-89
0,-365,15662,511,576,-95
0,-370,15669,511,579,-97
0,-324,15652,511,572,-98
0,-315,15666,511,586,-100
0,-332,15661,511,583,-107
0,-352,15662,511,571,-100
0,-346,15664,511,568,-94
0,-348,15660,511,567,-104
0,-356,15651,511,565,-103
0,-351,15643,511,578,-97
0,-350,15641,511,580,-99
0,-337,15895,256,583,-107
0,-330,15911,256,588,-102
0,-332,15679,511,584,-99
0,-354,15656,511,575,-100
0,-378,15659,511,586,-103
0,-369,15666,511,588,-111
0,-372,15654,511,576,-105
0,-353,15668,511,571,-97
0,-349,15936,256,563,-98
0,-353,15967,256,557,-95
0,-345,15986,256,561,-94
0,-339,15983,256,571,-107
0,-346,15688,511,571,-109
0,-359,15686,511,568,-100
0,-351,15693,511,575,-106
0,-346,15694,511,579,-111
0,-367,15665,511,582,-106
0,-386,15672,511,583,-99
0,-400,15675,511,577,-93
0,-385,15666,511,579,-99
0,-353,15654,511,575,-104
0,-349,15653,511,569,-100
0,-349,15639,511,561,-101
0,-362,15638,511,570,-106
0,-339,15639,511,574,-102
0,-332,15662,511,572,-96
0,-330,15657,511,588,-88
0,-357,15671,511,583,-91
0,-366,15671,511,575,-92
0,-361,15921,256,576,-93
0,-376,15943,256,569,-91
0,-376,15698,511,569,-91
0,-377,15693,511,574,-96
0,-362,15684,511,574,-97
0,-368,15671,511,570,-109
0,-338,15919,256,571,-105
0,-330,15678,511,565,-98
0,-336,15917,256,573,-107
0,-333,15664,511,578,-108
0,-348,15659,511,582,-101
0,-346,15908,256,585,-90
0,-364,15899,256,582,-91
0,-349,15914,256,571,-86
0,-355,15632,511,571,-96
0,-374,15654,511,567,-105
0,-375,15928,256,573,-93
0,-358,15669,511,571,-92
0,-331,15679,511,572,-88
0,-367,15681,511,573,-92
0,-391,15954,256,574,-96
0,-378,15951,256,580,-90
0,-355,15935,256,575,-94
0,-361,15950,256,570,-92
0,-363,15686,511,577,-93
0,-389,15669,511,575,-94
0,-386,15646,511,568,-89
0,-383,15643,511,575,-89
0,-373,15912,256,565,-88
0,-347,15911,256,562,-91
0,-364,15906,256,572,-95
0,-362,15657,511,579,-101
0,-359,15674,511,576,-94
0,-356,15927,256,578,-93
0,-348,15918,256,569,-91
0,-339,15649,511,567,-94
0,-356,15673,511,558,-90
0,-378,15916,256,568,-99
0,-397,15903,256,578,-101
0,-384,15654,511,576,-105
0,-371,15675,511,575,-107
0,-369,15914,256,575,-99
0,-369,15689,511,578,-87
0,-370,15703,511,581,-90
0,-340,15711,511,582,-92
0,-353,15681,511,575,-93
0,-365,15687,511,570,-91
0,-360,15679,511,581,-91
0,-352,15663,511,576,-90
0,-339,15661,511,577,-87
0,-355,15648,511,567,-90
0,-346,15626,511,567,-93
0,-357,15633,511,569,-91
0,-374,15644,511,569,-101
0,-365,15670,511,564,-103
0,-350,15660,511,566,-107
0,-361,15640,511,574,-104
0,-379,15641,511,578,-99
0,-361,15636,511,580,-100
0,-358,15638,511,572,-95
0,-351,15665,511,570,-90
0,-344,15923,256,574,-99
0,-338,15926,256,573,-114
0,-348,15939,256,581,-104
0,-339,15928,256,579,-102
0,-343,15896,256,578,-100
0,-346,15928,256,586,-95
0,-358,15929,256,586,-91
0,-355,15656,511,583,-81
0,-358,15653,511,576,-91
0,-379,15668,511,568,-96
0,-383,15659,511,567,-97
0,-358,15628,511,571,-102
0,-355,15647,511,568,-101
0,-371,15668,511,582,-93
0,-381,15649,511,589,-95
0,-391,15662,511,584,-99
0,-383,15934,256,581,-94
0,-351,15951,256,589,-90
0,-328,15677,511,588,-92
0,-333,15916,256,587,-99
0,-347,15690,511,583,-93
0,-359,15686,511,582,-94
0,-353,15677,511,588,-99
0,-343,15924,256,582,-96
0,-349,15651,511,580,-89
0,-361,15667,511,574,-92
0,-357,15922,256,583,-103
0,-363,15933,256,576,-107
0,-370,15671,511,574,-100
0,-347,15686,511,574,-88
0,-368,15691,511,567,-95
0,-387,15674,511,568,-96
0,-361,15676,511,578,-106
0,-371,15662,511,574,-107
0,-353,15635,511,575,-102
0,-357,15904,256,583,-107
0,-356,15627,511,586,-101
0,-361,15648,511,585,-102
0,-360,15663,511,581,-103
0,-358,15922,256,588,-103
0,-355,15931,256,583,-97
0,-376,15660,511,574,-96
0,-387,15902,256,572,-95
0,-388,15903,256,568,-103
0,-364,15897,256,570,-96
0,-346,15633,511,580,-97
0,-349,15642,511,581,-108
0,-352,15896,256,582,-114
0,-359,15924,256,587,-101
0,-367,15655,511,572,-96
0,-349,15652,511,560,-106
0,-356,15658,511,574,-102
0,-373,15656,511,590,-94
0,-361,15661,511,592,-92
0,-380,15654,511,587,-97
0,-353,15922,256,578,-90
0,-370,15916,256,582,-89
0,-380,15649,511,579,-95
0,-388,15647,511,576,-95
0,-380,15649,511,576,-94
0,-367,15906,256,570,-101
0,-348,15646,511,566,-104
0,-345,15906,256,565,-98
0,-326,15915,256,567,-89
0,-336,15682,511,570,-86
0,-354,15676,511,573,-92
0,-357,15659,511,578,-99
0,-360,15662,511,575,-102
0,-358,15884,256,562,-106
0,-382,15626,511,565,-99
0,-351,15638,511,569,-96
0,-345,15664,511,573,-93
0,-347,15665,511,572,-99
0,-338,15678,511,571,-96
0,-342,15674,511,570,-93
0,-340,15686,511,571,-102
0,-364,15689,511,577,-93
0,-366,15683,511,580,-93
0,-375,15677,511,580,-96
0,-359,15674,511,581,-102
0,-365,15644,511,579,-95
0,-365,15646,511,577,-93
0,-373,15642,511,570,-98
0,-383,15659,511,569,-82
0,-368,15642,511,579,-90
0,-365,15631,511,579,-85
0,-369,15647,511,576,-91
0,-354,15655,511,576,-96
0,-340,15926,256,571,-92
0,-339,15919,256,573,-94
0,-334,15664,511,570,-89
0,-353,15687,511,566,-85
0,-388,15700,511,568,-90
0,-387,15670,511,568,-102
0,-386,15684,511,566,-107
0,-362,15674,511,573,-100
0,-353,15929,256,578,-88
0,-364,15923,256,573,-86
0,-371,15666,511,571,-89
0,-381,15655,511,576,-89
0,-368,15654,511,579,-93
0,-362,15935,256,578,-96
0,-362,15685,511,582,-100
0,-349,15690,511,584,-98
0,-359,15689,511,574,-101
0,-369,15701,511,569,-109
0,-354,15674,511,574,-105
0,-375,15667,511,583,-93
0,-369,15664,511,583,-94
0,-368,15667,511,572,-97
0,-372,15666,511,578,-103
0,-361,15920,256,576,-103
0,-342,15639,511,574,-98
0,-341,15628,511,569,-100
0,-361,15890,256,565,-96
0,-347,15912,256,571,-102
0,-349,15659,511,573,-90
0,-357,15661,511,571,-87
0,-359,15649,511,576,-90
0,-376,15658,511,576,-88
0,-364,15668,511,577,-78
0,-373,15675,511,578,-79
0,-378,15946,256,577,-81
0,-382,15943,256,575,-85
0,-383,15934,256,567,-93
0,-360,15933,256,568,-89
0,-325,15935,256,575,-90
0,-335,15937,256,580,-95
0,-347,15913,256,569,-93
0,-381,15914,256,570,-96
0,-358,15678,511,572,-99
0,-365,15666,511,572,-97
0,-339,15637,511,581,-87
0,-328,15636,511,576,-94
0,-351,15648,511,579,-99
0,-387,15644,511,575,-97
0,-387,15660,511,573,-91
0,-391,15674,511,577,-96
0,-379,15657,511,576,-106
0,-396,15635,511,579,-111
0,-390,15631,511,571,-108
0,-366,15656,511,570,-104
0,-340,15653,511,569,-90
0,-339,15645,511,567,-90
0,-364,15672,511,574,-101
0,-366,15656,511,576,-98
0,-371,15664,511,575,-92
0,-360,15673,511,578,-92
0,-364,15933,256,574,-94
0,-354,15696,511,579,-86
0,-352,15943,256,582,-80
0,-361,15930,256,575,-86
0,-387,15678,511,574,-92
0,-378,15679,511,577,-92
0,-380,15648,511,565,-92
0,-392,15642,511,562,-93
0,-400,15653,511,575,-91
0,-372,15662,511,574,-93
255,-366,15671,511,566,-95
255,-369,15664,511,570,-89
0,-357,15659,511,573,-91
0,-370,15920,256,575,-87
0,-368,15927,256,573,-100
0,-351,15686,511,581,-95
0,-349,15965,256,572,-91
0,-351,15946,256,575,-93
0,-343,15674,511,580,-86
0,-338,15686,511,571,-97
0,-364,15668,511,571,-91
0,-377,15645,511,572,-95
0,-389,15638,511,571,-100
0,-394,15651,511,570,-99
0,-379,15656,511,575,-91
0,-379,15661,511,572,-94
0,-374,15682,511,564,-104
0,-370,15689,511,568,-101
0,-363,15948,256,572,-116
0,-341,15928,256,574,-108
0,-330,15931,256,575,-88
0,-339,15667,511,582,-89
0,-343,15644,511,578,-104
0,-354,15639,511,568,-95
0,-335,15645,511,567,-97
0,-347,15920,256,570,-94
0,-345,15932,256,572,-94
0,-374,15910,256,577,-89
0,-385,15921,256,576,-89
0,-383,15918,256,581,-101
0,-372,15918,256,584,-98
0,-365,15907,256,578,-96
0,-359,15635,511,564,-103
0,-389,15635,511,569,-104
0,-644,15863,511,574,-102
0,-370,15624,511,563,-102
0,-340,15896,256,559,-111
0,-351,15645,511,566,-98
0,-351,15656,511,569,-94
0,-365,15657,511,567,-95
0,-347,15645,511,571,-96
0,-339,15665,511,568,-94
0,-351,15666,511,568,-93
0,-358,15654,511,571,-90
0,-355,15660,511,576,-91
0,-357,15679,511,575,-97
0,-363,15683,511,576,-100
0,-386,15647,511,577,-102
0,-377,15643,511,578,-104
0,-363,15657,511,582,-97
0,-364,15690,511,579,-91
0,-355,15687,511,578,-101
0,-368,15937,256,578,-101
0,-367,15691,511,583,-106
0,-341,15683,511,579,-108
0,-354,15703,511,573,-97
0,-353,15680,511,567,-85
0,-363,15915,256,573,-91
0,-361,15646,511,573,-92
0,-378,15645,511,568,-96
0,-368,15660,511,567,-96
0,-366,15678,511,565,-104
0,-352,15672,511,561,-106
0,-351,15670,511,561,-104
0,-364,15645,511,560,-101
0,-377,15657,511,565,-106
0,-385,15640,511,556,-97
0,-373,15654,511,548,-91
0,-388,15917,256,554,-92
0,-377,15679,511,554,-91
0,-371,15928,256,562,-87
0,-360,15935,256,573,-89
0,-361,15939,256,570,-82
0,-375,15915,256,571,-84
0,-364,15644,511,580,-95
0,-368,15644,511,580,-94
0,-369,15650,511,581,-96
0,-349,15651,511,581,-95
0,-343,15645,511,580,-101
0,-339,15658,511,580,-96
0,-338,15658,511,582,-97
0,-337,15681,511,586,-99
0,-332,15672,511,584,-89
0,-349,15688,511,586,-90
0,-351,15945,256,587,-87
0,-379,15930,256,589,-93
0,-379,15694,511,587,-101
0,-378,15704,511,577,-110
0,-401,15680,511,564,-100
0,-404,15663,511,562,-98
0,-372,15916,256,564,-106
0,-378,15892,256,564,-104
0,-362,15616,511,570,-94
0,-341,15623,511,574,-88
0,-346,15894,256,573,-88
0,-342,15653,511,576,-77
0,-359,15669,511,565,-73
0,-372,15651,511,561,-83
0,-357,15662,511,565,-86
0,-371,15644,511,567,-94
0,-366,15647,511,572,-93
0,-362,15668,511,573,-94
0,-375,15677,511,580,-101
0,-366,15676,511,575,-95
0,-360,15659,511,575,-85
0,-364,15623,511,574,-82
0,-344,15628,511,573,-96
0,-357,15645,511,590,-90
0,-352,15642,511,581,-77
0,-320,15654,511,572,-75
0,-328,15646,511,578,-78
0,-331,15643,511,573,-92
0,-340,15654,511,571,-80
0,-346,15680,511,578,-79
0,-345,15686,511,583,-87
0,-351,15681,511,585,-90
0,-353,15677,511,580,-98
0,-372,15681,511,583,-87
0,-376,15658,511,581,-94
0,-357,15658,511,579,-87
0,-343,15678,511,578,-99
0,-350,15703,511,573,-101
0,-357,15689,511,573,-92
0,-342,15682,511,566,-85
0,-359,15926,256,564,-83
0,-387,15691,511,566,-89
0,-397,15932,256,571,-88
0,-366,15921,256,576,-83
0,-371,15663,511,574,-84
0,-367,15928,256,568,-75
0,-384,15663,511,569,-85
0,-378,15655,511,568,-100
0,-378,15660,511,573,-102
0,-390,15660,511,578,-104
0,-367,15678,511,578,-100
0,-358,15928,256,567,-95
0,-366,15666,511,572,-95
0,-362,15655,511,573,-97
0,-363,15641,511,574,-103
0,-384,15652,511,576,-103
0,-381,15647,511,580,-100
0,-366,15636,511,571,-102
0,-353,15640,511,578,-98
0,-339,15643,511,572,-89
0,-332,15647,511,578,-91
0,-344,15636,511,574,-99
0,-322,15650,511,564,-90
0,-341,15662,511,558,-94
0,-355,15637,511,564,-99
0,-344,15636,511,573,-94
0,-346,15640,511,575,-91
0,-340,15913,256,578,-90
0,-347,15899,256,585,-94
0,-358,15910,256,573,-94
0,-351,15914,256,573,-98
0,-337,15927,256,580,-108
0,-338,15942,256,585,-100
0,-353,15920,256,574,-101
0,-358,15659,511,565,-107
0,-371,15667,511,564,-105
0,-393,15663,511,570,-107
0,-387,15660,511,578,-103
0,-375,15651,511,578,-106
0,-375,15674,511,580,-113
0,-353,15691,511,575,-106
0,-379,15652,511,574,-98
0,-380,15648,511,575,-97
0,-382,15882,256,575,-91
0,-360,15629,511,578,-91
0,-375,15649,511,574,-93
0,-361,15650,511,578,-87
0,-367,15663,511,581,-89
0,-368,15647,511,573,-89
0,-371,15665,511,569,-100
0,-360,15675,511,568,-99
0,-372,15689,511,568,-99
0,-367,15671,511,573,-98
0,-342,15671,511,571,-95
0,-317,15666,511,582,-87
0,-340,15652,511,581,-90
0,-344,15628,511,574,-92
0,-346,15647,511,579,-89
0,-345,15658,511,579,-94
0,-339,15645,511,573,-92
0,-377,15916,256,562,-90
0,-373,15642,511,574,-92
0,-380,15643,511,568,-91
0,-385,15646,511,575,-99
0,-378,15661,511,581,-100
0,-362,15686,511,584,-94
0,-341,15654,511,590,-94
0,-359,15660,511,582,-92
0,-340,15671,511,581,-87
0,-351,15681,511,579,-86
0,-358,15678,511,572,-91
0,-360,15641,511,568,-92
0,-359,15917,256,562,-95
0,-380,15911,256,571,-96
0,-375,15901,256,571,-99
0,-361,15908,256,566,-102
0,-354,15904,256,566,-94
0,-353,15905,256,570,-94
0,-357,15897,256,577,-99
0,-344,15643,511,583,-108
0,-363,15666,511,584,-105
0,-370,15921,256,580,-100
0,-348,15668,511,578,-100
0,-351,15659,511,577,-80
0,-331,15655,511,570,-88
0,-360,15657,511,578,-89
0,-394,15655,511,576,-92
0,-395,15663,511,572,-101
0,-360,15657,511,580,-96
0,-348,15651,511,576,-95
0,-331,15651,511,567,-97
0,-343,15905,256,571,-96
0,-362,15633,511,572,-101
0,-346,15637,511,576,-105
0,-324,15645,511,577,-107
0,-345,15636,511,574,-104
0,-342,15652,511,579,-95
0,-328,15909,256,575,-104
0,-346,15667,511,575,-102
0,-352,15920,256,582,-101
0,-363,15922,256,578,-97
0,-386,15927,256,580,-92
0,-393,15918,256,575,-89
0,-390,15929,256,572,-95
0,-370,15668,511,584,-94
0,-348,15681,511,585,-85
0,-330,15684,511,582,-85
0,-344,15699,511,573,-92
0,-345,15944,256,573,-98
0,-359,15939,256,577,-98
0,-372,15679,511,581,-94
0,-341,15687,511,587,-107
0,-365,15686,511,584,-99
0,-373,15933,256,594,-99
0,-359,15671,511,591,-100
0,-357,15675,511,593,-94
0,-367,15677,511,584,-95
0,-358,15663,511,578,-94
0,-347,15665,511,578,-93
0,-352,15637,511,580,-102
0,-368,15653,511,579,-93
0,-375,15664,511,577,-84
0,-342,15916,256,575,-82
0,-355,15898,256,577,-83
0,-350,15923,256,579,-91
0,-355,15667,511,572,-95
0,-363,15675,511,577,-85
0,-367,15684,511,570,-85
0,-355,15685,511,564,-95
0,-347,15681,511,573,-94
0,-348,15675,511,571,-99
0,-362,15679,511,572,-94
0,-334,15659,511,578,-89
0,-356,15649,511,578,-85
0,-380,15650,511,577,-85
0,-385,15647,511,579,-90
0,-386,15655,511,577,-88
0,-379,15651,511,572,-88
0,-360,15652,511,566,-85
0,-358,15663,511,567,-94
0,-356,15650,511,566,-95
0,-379,15632,511,562,-93
0,-374,15637,511,566,-90
0,-364,15629,511,567,-87
0,-377,15631,511,572,-90
0,-379,15638,511,578,-90
0,-372,15637,511,575,-94
0,-370,15653,511,583,-94
0,-360,15663,511,576,-95
0,-362,15658,511,570,-84
0,-357,15657,511,572,-92
0,-362,15662,511,576,-102
0,-353,15667,511,571,-97
0,-321,15665,511,562,-95
0,-322,15689,511,566,-90
0,-337,15679,511,569,-81
0,-349,15662,511,572,-82
0,-355,15658,511,567,-90
0,-374,15657,511,575,-95
0,-369,15653,511,578,-89
0,-377,15653,511,575,-92
0,-373,15890,256,571,-88
0,-376,15638,511,569,-82
0,-370,15680,511,567,-94
0,-363,15677,511,565,-100
0,-356,15669,511,564,-95
0,-337,15666,511,562,-96
0,-307,15651,511,563,-94
0,-326,15648,511,570,-87
0,-333,15662,511,578,-102
0,-354,15677,511,566,-106
0,-357,15671,511,558,-99
0,-362,15668,511,562,-93
0,-351,15652,511,570,-101
0,-371,15644,511,571,-102
0,-352,15668,511,572,-99
0,-369,15675,511,572,-97
0,-374,15667,511,576,-101
0,-375,15648,511,577,-107
0,-346,15890,256,575,-101
0,-336,15648,511,573,-101
0,-330,15650,511,571,-100
0,-319,15690,511,583,-103
0,-329,15673,511,580,-108
0,-346,15895,256,576,-102
0,-355,15902,256,570,-108
0,-373,15935,256,568,-111
0,-367,15913,256,568,-103
0,-350,15664,511,563,-109
0,-358,15667,511,566,-118
0,-364,15672,511,563,-110
0,-376,15671,511,562,-100
0,-399,15638,511,564,-101
0,-374,15617,511,572,-100
0,-362,15636,511,574,-89
0,-339,15641,511,572,-87
0,-336,15643,511,577,-98
0,-346,15660,511,574,-96
0,-372,15661,511,568,-90
0,-361,15655,511,566,-83
0,-353,15644,511,566,-101
0,-351,15631,511,576,-93
0,-346,15646,511,572,-90
0,-342,15653,511,572,-91
0,-365,15667,511,572,-94
0,-356,15652,511,571,-92
0,-366,15649,511,577,-86
0,-365,15663,511,573,-82
0,-352,15670,511,572,-78
0,-327,15665,511,574,-83
0,-323,15654,511,580,-92
0,-337,15675,511,585,-106
0,-330,15942,256,593,-111
0,-328,15676,511,589,-107
0,-349,15944,256,581,-98
0,-360,15940,256,572,-92
0,-371,15920,256,577,-95
0,-363,15920,256,581,-102
0,-340,15899,256,577,-97
0,-344,15639,511,580,-94
0,-346,15630,511,581,-88
0,-329,15634,511,580,-93
0,-339,15651,511,574,-101
0,-359,15901,256,571,-106
0,-354,15895,256,573,-94
0,-343,15913,256,567,-92
0,-343,15929,256,575,-89
0,-360,15948,256,575,-90
0,-366,15664,511,580,-79
0,-367,15656,511,582,-82
0,-352,15664,511,581,-82
0,-371,15952,256,578,-101
0,-366,15942,256,571,-97
0,-351,15921,256,571,-93
0,-353,15925,256,581,-97
0,-362,15917,256,580,-94
0,-349,15665,511,574,-94
0,-341,15661,511,564,-92
0,-338,15659,511,572,-98
0,-353,15663,511,574,-96
0,-339,15912,256,574,-93
0,-349,15896,256,571,-96
0,-338,15900,256,569,-90
0,-342,15912,256,580,-91
0,-344,15904,256,573,-93
0,-350,15911,256,576,-95
0,-374,15896,256,581,-100
0,-383,15930,256,582,-103
0,-368,15943,256,585,-96
0,-363,15938,256,580,-99
0,-366,15931,256,583,-97
0,-365,15917,256,574,-95
0,-354,15916,256,576,-103
0,-355,15911,256,571,-112
0,-381,15651,511,561,-112
0,-374,15656,511,571,-98
0,-370,15674,511,576,-90
0,-330,15659,511,568,-98
0,-341,15642,511,570,-106
0,-356,15628,511,580,-115
0,-606,15854,511,581,-115
0,-595,15858,511,588,-108
0,-347,15628,511,587,-110
0,-366,15642,511,575,-103
0,-357,15650,511,567,-105
0,-380,15915,256,558,-98
0,-377,15925,256,562,-93
0,-400,15916,256,575,-101
0,-378,15908,256,569,-103
0,-361,15648,511,573,-96
0,-362,15649,511,570,-101
0,-355,15633,511,571,-102
0,-371,15899,256,578,-101
0,-366,15915,256,580,-100
0,-369,15901,256,588,-98
0,-355,15894,256,594,-92
0,-381,15893,256,597,-92
0,-353,15909,256,581,-88
0,-358,15906,256,590,-93
0,-347,15921,256,592,-94
0,-368,15917,256,586,-95
0,-392,15904,256,581,-98
0,-378,15903,256,584,-92
0,-367,15642,511,575,-99
0,-362,15656,511,576,-96
0,-343,15674,511,577,-101
0,-354,15676,511,576,-100
0,-385,15657,511,566,-96
0,-397,15638,511,570,-90
0,-379,15641,511,577,-99
0,-365,15633,511,582,-99
0,-362,15629,511,582,-93
0,-354,15903,256,577,-91
0,-354,15663,511,574,-93
0,-357,15913,256,567,-92
0,-358,15913,256,577,-93
0,-362,15916,256,580,-93
0,-353,15901,256,576,-94
0,-356,15899,256,569,-100
0,-370,15923,256,570,-104
0,-365,15924,256,574,-97
0,-360,15655,511,569,-95
0,-370,15664,511,571,-97
0,-375,15679,511,581,-107
0,-355,15659,511,585,-111
0,-352,15651,511,589,-98
0,-362,15656,511,579,-89
0,-351,15674,511,578,-103
0,-353,15650,511,580,-110
0,-346,15636,511,583,-109
0,-364,15642,511,581,-102
0,-378,15664,511,575,-100
0,-368,15653,511,585,-91
0,-364,15629,511,580,-88
0,-363,15656,511,578,-84
0,-365,15662,511,581,-78
0,-364,15661,511,580,-85
0,-365,15658,511,581,-95
0,-367,15655,511,588,-98
0,-381,15683,511,575,-102
0,-373,15677,511,561,-103
0,-361,15656,511,564,-101
0,-370,15669,511,567,-101
0,-386,15664,511,575,-93
0,-382,15663,511,567,-95
0,-377,15652,511,570,-101
0,-349,15687,511,583,-101
0,-346,15685,511,584,-96
0,-343,15666,511,582,-99
0,-342,15662,511,574,-105
0,-344,15670,511,569,-95
0,-350,15647,511,573,-86
0,-354,15665,511,577,-89
0,-365,15665,511,577,-101
0,-373,15664,511,583,-91
0,-364,15912,256,586,-90
0,-372,15914,256,583,-97
0,-374,15906,256,580,-93
0,-367,15904,256,577,-103
0,-361,15926,256,576,-107
0,-353,15643,511,577,-105
0,-371,15640,511,580,-103
0,-372,15657,511,582,-99
0,-382,15911,256,583,-94
0,-389,15662,511,579,-87
0,-389,15923,256,581,-90
0,-375,15925,256,575,-89
0,-362,15661,511,572,-104
0,-362,15668,511,573,-101
0,-380,15911,256,586,-93
0,-391,15663,511,588,-92
0,-386,15669,511,586,-93
0,-370,15665,511,581,-81
0,-348,15663,511,581,-83
0,-341,15668,511,588,-85
0,-367,15671,511,585,-93
0,-360,15647,511,579,-96
0,-359,15893,256,584,-98
0,-358,15665,511,583,-102
0,-362,15659,511,570,-105
0,-343,15918,256,573,-96
0,-317,15637,511,573,-95
0,-584,15870,511,572,-92
0,-321,15625,511,578,-95
0,-566,15863,511,581,-91
0,-321,15622,511,586,-88
0,-333,15649,511,580,-97
0,-339,15646,511,570,-107
0,-357,15639,511,572,-102
0,-348,15655,511,574,-96
0,-343,15907,256,574,-103
0,-360,15897,256,575,-104
0,-349,15890,256,569,-106
0,-341,15893,256,568,-102
0,-356,15646,511,570,-95
0,-338,15661,511,560,-92
0,-352,15672,511,559,-99
0,-358,15914,256,578,-108
0,-352,15885,256,587,-107
0,-344,15884,256,576,-99
0,-352,15900,256,565,-94
0,-347,15914,256,566,-94
0,-359,15929,256,561,-90
0,-378,15900,256,564,-85
0,-350,15909,256,571,-84
0,-331,15914,256,567,-84
0,-323,15935,256,569,-90
0,-346,15935,256,571,-100
0,-354,15921,256,579,-99
0,-367,15672,511,576,-105
0,-377,15919,256,577,-107
0,-388,15918,256,576,-92
0,-376,15913,256,581,-98
0,-371,15663,511,587,-108
0,-358,15643,511,586,-98
0,-346,15644,511,583,-85
0,-351,15658,511,584,-95
0,-328,15647,511,592,-97
0,-347,15895,256,589,-97
0,-334,15651,511,586,-99
0,-336,15654,511,580,-103
255,-345,15655,511,576,-114
255,-365,15658,511,583,-110
255,-362,15935,256,584,-95
0,-361,15664,511,587,-87
0,-364,15648,511,591,-98
0,-373,15900,256,596,-106
0,-359,15900,256,585,-101
0,-360,15904,256,581,-94
0,-349,15644,511,581,-97
0,-345,15894,256,587,-102
0,-356,15646,511,583,-109
0,-353,15671,511,573,-102
0,-354,15671,511,574,-93
0,-348,15693,511,575,-88
0,-365,15671,511,569,-94
0,-352,15654,511,564,-84
0,-382,15652,511,563,-83
0,-368,15654,511,558,-96
0,-346,15645,511,562,-99
0,-366,15898,256,574,-97
0,-361,15913,256,574,-84
0,-336,15666,511,579,-87
0,-332,15658,511,586,-85
0,-372,15911,256,581,-91
0,-349,15911,256,574,-90
0,-330,15929,256,575,-96
0,-327,15948,256,565,-101
0,-340,15948,256,565,-91
0,-344,15921,256,571,-98
0,-326,15644,511,570,-104
0,-351,15652,511,569,-88
0,-369,15656,511,572,-84
0,-366,15657,511,568,-89
0,-357,15680,511,579,-87
0,-350,15939,256,574,-88
0,-372,15935,256,575,-85
0,-364,15675,511,567,-89
0,-351,15679,511,570,-94
0,-338,15675,511,565,-82
0,-345,15668,511,571,-82
0,-348,15647,511,572,-99
0,-341,15660,511,584,-105
0,-349,15650,511,587,-97
0,-341,15656,511,586,-95
0,-354,15929,256,575,-97
0,-373,15924,256,575,-100
0,-377,15930,256,576,-102
0,-369,15703,511,572,-98
0,-363,15704,511,577,-86
0,-337,15661,511,576,-91
0,-340,15912,256,580,-92
0,-344,15673,511,578,-94
0,-355,15638,511,574,-101
0,-355,15655,511,572,-100
0,-368,15674,511,573,-100
0,-384,15685,511,561,-103
0,-368,15958,256,559,-97
0,-354,15916,256,568,-94
0,-369,15886,256,567,-92
0,-379,15654,511,576,-94
0,-354,15654,511,583,-92
0,-350,15647,511,583,-102
0,-342,15662,511,579,-111
0,-333,15679,511,583,-98
0,-337,15944,256,584,-97
0,-349,15673,511,574,-95
0,-364,15669,511,562,-98
0,-378,15673,511,567,-94
0,-378,15931,256,570,-92
0,-348,15675,511,572,-97
0,-363,15677,511,573,-100
0,-388,15667,511,568,-95
0,-372,15683,511,568,-103
0,-368,15931,256,576,-97
0,-366,15660,511,584,-92
0,-367,15660,511,582,-95
0,-375,15682,511,589,-91
0,-381,15674,511,582,-90
0,-354,15687,511,580,-93
0,-346,15662,511,587,-96
0,-360,15917,256,577,-98
0,-367,15904,256,579,-94
0,-340,15659,511,575,-97
0,-339,15665,511,579,-93
0,-358,15651,511,578,-89
0,-366,15903,256,579,-93
0,-372,15906,256,578,-89
0,-385,15917,256,568,-92
0,-386,15918,256,569,-102
0,-345,15908,256,574,-103
0,-343,15920,256,571,-98
0,-353,15667,511,585,-97
0,-349,15670,511,583,-95
0,-340,15684,511,575,-95
0,-317,15936,256,569,-104
0,-327,15687,511,572,-105
0,-356,15650,511,584,-103
0,-368,15653,511,588,-99
0,-351,15642,511,583,-100
0,-333,15659,511,582,-108
0,-306,15678,511,580,-93
0,-324,15683,511,587,-83
0,-346,15931,256,587,-83
0,-368,15920,256,587,-89
0,-375,15652,511,584,-95
0,-346,15660,511,590,-88
0,-350,15924,256,585,-94
0,-358,15962,256,580,-94
0,-370,15701,511,572,-94
0,-354,15713,511,578,-93
0,-364,15679,511,576,-78
0,-361,15664,511,570,-88
0,-353,15674,511,571,-94
0,-366,15668,511,565,-90
0,-364,15672,511,570,-78
0,-355,15659,511,572,-85
0,-330,15918,256,567,-86
0,-349,15697,511,557,-88
0,-353,15689,511,561,-83
0,-356,15660,511,566,-87
0,-355,15652,511,560,-101
0,-357,15891,256,557,-114
0,-597,16110,256,572,-105
0,-589,15869,511,575,-89
0,-359,15636,511,568,-82
0,-346,15919,256,570,-82
0,-338,15673,511,573,-85
0,-330,15665,511,567,-84
0,-352,15669,511,572,-89
0,-360,15657,511,573,-95
0,-356,15662,511,569,-101
0,-367,15658,511,569,-106
0,-369,15678,511,573,-109
0,-377,15673,511,579,-107
0,-364,15692,511,579,-96
0,-370,15956,256,577,-93
0,-378,15662,511,582,-98
0,-362,15646,511,581,-90
0,-373,15652,511,576,-88
0,-377,15648,511,582,-99
0,-391,15650,511,577,-100
0,-363,15656,511,574,-89
0,-352,15646,511,569,-96
0,-372,15651,511,567,-99
0,-378,15922,256,573,-99
0,-375,15674,511,575,-96
0,-381,15962,256,568,-95
0,-381,15689,511,570,-98
0,-373,15690,511,562,-98
0,-358,15694,511,562,-107
0,-333,15951,256,572,-105
0,-339,15950,256,579,-97
0,-341,15658,511,582,-84
0,-351,15679,511,578,-83
0,-352,15675,511,574,-104
0,-366,15636,511,569,-99
0,-376,15662,511,574,-89
0,-375,15668,511,568,-92
0,-375,15656,511,568,-97
0,-368,15641,511,568,-99
0,-358,15658,511,575,-98
0,-335,15935,256,582,-90
0,-356,15674,511,581,-104
0,-376,15918,256,581,-102
0,-356,15913,256,584,-93
0,-341,15907,256,580,-85
0,-368,15899,256,580,-80
0,-354,15916,256,583,-79
0,-371,15925,256,583,-86
0,-372,15693,511,578,-96
0,-371,15667,511,574,-92
0,-358,15671,511,575,-93
0,-329,15665,511,567,-91
0,-353,15670,511,565,-90
0,-361,15674,511,563,-96
0,-346,15670,511,561,-102
0,-361,15658,511,563,-100
0,-379,15652,511,574,-98
0,-384,15672,511,576,-95
0,-370,15687,511,577,-92
0,-346,15681,511,567,-96
0,-346,15657,511,579,-91
0,-362,15651,511,573,-85
0,-349,15647,511,576,-82
255,-356,15635,511,582,-92
0,-354,15631,511,581,-99
0,-343,15635,511,584,-110
0,-349,15658,511,580,-110
0,-347,15663,511,581,-95
0,-358,15912,256,577,-95
0,-359,15904,256,561,-100
0,-346,15670,511,569,-98
0,-366,15939,256,574,-95
0,-349,15928,256,571,-83
0,-365,15919,256,568,-90
0,-357,15918,256,574,-94
0,-367,15674,511,574,-99
0,-352,15915,256,567,-98
0,-365,15658,511,573,-95
0,-374,15659,511,578,-87
0,-390,15662,511,577,-90
0,-377,15653,511,576,-86
0,-387,15671,511,574,-88
0,-369,15654,511,573,-93
0,-380,15663,511,576,-99
0,-376,15647,511,573,-94
0,-375,15660,511,577,-92
0,-353,15637,511,575,-88
0,-349,15901,256,583,-86
0,-382,15894,256,586,-93
0,-362,15897,256,583,-93
0,-366,15906,256,581,-72
0,-373,15908,256,575,-83
0,-356,15897,256,567,-97
0,-359,15897,256,564,-100
0,-352,15912,256,562,-97
0,-348,15924,256,569,-89
0,-342,15668,511,582,-87
0,-361,15662,511,584,-82
0,-346,15643,511,579,-86
0,-340,15637,511,582,-85
0,-344,15663,511,583,-84
0,-345,15655,511,574,-92
0,-338,15909,256,572,-97
0,-353,15898,256,575,-89
0,-356,15655,511,579,-88
0,-344,15644,511,576,-91
0,-343,15647,511,577,-77
0,-370,15651,511,569,-83
0,-366,15662,511,576,-91
0,-362,15658,511,577,-99
0,-364,15656,511,573,-109
0,-371,15648,511,576,-93
0,-390,15643,511,573,-92
0,-400,15651,511,578,-98
0,-388,15670,511,579,-99
0,-365,15685,511,581,-99
0,-360,15680,511,580,-101
0,-362,15942,256,577,-94
0,-357,15949,256,574,-92
0,-379,15689,511,575,-90
0,-363,15690,511,575,-90
0,-361,15653,511,578,-89
0,-377,15671,511,580,-92
0,-368,15652,511,584,-96
0,-369,15657,511,573,-106
0,-364,15662,511,576,-107
0,-374,15685,511,588,-100
0,-359,15669,511,580,-107
0,-368,15670,511,571,-99
0,-376,15672,511,573,-94
0,-375,15652,511,574,-89
0,-378,15925,256,565,-91
0,-386,15670,511,566,-89
0,-382,15682,511,573,-88
0,-347,15673,511,567,-91
0,-363,15666,511,570,-92
0,-387,15658,511,577,-96
0,-383,15641,511,580,-83
0,-379,15638,511,580,-82
0,-387,15673,511,568,-94
0,-358,15676,511,568,-104
0,-339,15663,511,563,-103
0,-343,15668,511,571,-99
0,-350,15661,511,570,-92
0,-365,15658,511,569,-97
0,-370,15654,511,570,-92
0,-379,15650,511,586,-90
0,-370,15630,511,581,-87
0,-366,15636,511,580,-92
0,-366,15640,511,578,-95
0,-358,15896,256,574,-93
0,-353,15636,511,567,-91
0,-338,15660,511,566,-96
0,-354,15929,256,573,-100
0,-350,15651,511,570,-91
0,-361,15642,511,572,-97
0,-370,15629,511,577,-96
0,-353,15639,511,571,-104
0,-373,15647,511,565,-101
0,-364,15647,511,572,-105
0,-375,15647,511,567,-108
0,-371,15673,511,573,-104
0,-355,15673,511,572,-93
0,-333,15659,511,569,-98
0,-325,15912,256,572,-100
0,-338,15912,256,575,-102
0,-367,15914,256,578,-97
0,-359,15665,511,580,-95
0,-348,15924,256,583,-100
0,-339,15678,511,577,-106
0,-324,15669,511,570,-99
0,-337,15662,511,578,-95
0,-357,15653,511,575,-98
0,-367,15664,511,579,-93
0,-360,15657,511,572,-98
0,-392,15663,511,573,-93
0,-396,15644,511,577,-99
0,-397,15654,511,579,-95
0,-404,15668,511,574,-103
0,-389,15669,511,577,-110
0,-367,15900,256,577,-104
0,-368,15904,256,575,-102
0,-348,15660,511,578,-94
0,-358,15642,511,580,-91
0,-357,15666,511,580,-88
0,-367,15670,511,583,-96
0,-341,15655,511,575,-100
0,-346,15660,511,571,-88
0,-353,15672,511,576,-89
0,-354,15918,256,577,-92
0,-359,15920,256,583,-97
0,-354,15902,256,581,-102
0,-386,15909,256,583,-104
0,-374,15918,256,589,-108
0,-385,15896,256,579,-90
0,-392,15902,256,580,-82
0,-399,15898,256,572,-82
0,-396,15895,256,566,-91
0,-398,15887,256,582,-95
0,-354,15919,256,570,-106
0,-347,15939,256,573,-106
0,-355,15940,256,572,-103
0,-363,15953,256,573,-93
0,-382,15925,256,573,-100
0,-394,15934,256,569,-104
0,-362,15681,511,572,-98
0,-366,15675,511,575,-102
0,-378,15926,256,581,-98
0,-363,15921,256,583,-102
0,-371,15664,511,581,-85
0,-379,15647,511,582,-87
0,-388,15655,511,583,-96
0,-365,15922,256,587,-91
0,-377,15933,256,582,-93
0,-355,15945,256,578,-96
0,-371,15946,256,577,-86
0,-378,15695,511,578,-86
0,-356,15692,511,585,-82
0,-336,15682,511,590,-78
0,-318,15684,511,587,-80
0,-330,15688,511,581,-90
0,-362,15653,511,578,-85
0,-356,15663,511,578,-87
0,-363,15654,511,570,-97
0,-372,15670,511,571,-97
0,-331,15650,511,567,-93
0,-330,15916,256,568,-98
0,-327,15688,511,560,-105
0,-320,15672,511,562,-106
0,-326,15922,256,566,-102
0,-344,15941,256,571,-106
0,-337,15937,256,570,-101
0,-344,15914,256,569,-105
0,-354,15646,511,572,-107
0,-358,15636,511,573,-100
0,-365,15905,256,571,-96
0,-350,15663,511,569,-86
0,-364,15915,256,569,-79
0,-373,15645,511,574,-79
0,-381,15646,511,582,-90
0,-373,15928,256,576,-92
0,-370,15925,256,574,-81
0,-347,15669,511,572,-96
0,-336,15631,511,572,-106
0,-317,15630,511,581,-108
0,-355,15634,511,576,-98
0,-356,15900,256,570,-88
0,-360,15904,256,570,-92
0,-373,15649,511,573,-94
0,-361,15653,511,581,-98
0,-374,15647,511,576,-103
0,-371,15640,511,579,-97
0,-341,15658,511,568,-91
0,-328,15648,511,579,-101
0,-338,15661,511,585,-103
0,-338,15671,511,574,-102
0,-368,15678,511,575,-105
0,-389,15672,511,578,-100
0,-387,15676,511,577,-105
0,-381,15671,511,580,-102
0,-385,15649,511,571,-102
0,-371,15658,511,563,-97
0,-368,15672,511,567,-87
0,-359,15916,256,573,-89
0,-350,15917,256,577,-96
0,-349,15656,511,575,-108
0,-352,15654,511,568,-101
0,-349,15663,511,567,-100
0,-364,15925,256,571,-88
0,-336,15684,511,569,-90
0,-349,15683,511,560,-98
0,-353,15690,511,564,-95
0,-387,15938,256,576,-96
0,-365,15689,511,569,-96
0,-355,15667,511,572,-98
0,-359,15678,511,577,-93
0,-367,15671,511,575,-91
0,-383,15675,511,577,-95
0,-375,15663,511,581,-100
0,-368,15667,511,583,-96
0,-355,15668,511,572,-94
0,-358,15673,511,583,-87
0,-374,15665,511,583,-87
0,-370,15674,511,576,-83
0,-372,15644,511,571,-94
0,-377,15644,511,564,-94
0,-360,15649,511,559,-97
0,-352,15649,511,562,-104
0,-353,15650,511,559,-102
0,-328,15637,511,566,-99
0,-331,15648,511,572,-92
0,-342,15660,511,568,-82
0,-367,15653,511,558,-79
0,-379,15654,511,561,-76
0,-386,15651,511,560,-78
0,-368,15662,511,565,-91
0,-355,15681,511,568,-91
0,-346,15666,511,569,-89
0,-331,15672,511,565,-86
0,-343,15686,511,570,-91
0,-379,15694,511,577,-96
0,-374,15692,511,580,-99
0,-364,15663,511,574,-97
0,-379,15650,511,576,-85
0,-369,15917,256,585,-76
0,-359,15667,511,585,-95
0,-379,15672,511,583,-86
0,-379,15670,511,584,-92
0,-368,15673,511,576,-89
0,-348,15909,256,579,-84
0,-386,15928,256,582,-91
0,-366,15923,256,585,-90
0,-358,15908,256,575,-99
0,-356,15933,256,578,-94
0,-364,15943,256,578,-92
0,-352,15937,256,581,-96
0,-363,15683,511,577,-91
0,-362,15936,256,571,-103
0,-353,15940,256,570,-96
0,-356,15945,256,566,-90
0,-365,15949,256,566,-94
0,-355,15946,256,561,-92
0,-382,15952,256,566,-89
0,-388,15943,256,568,-99
0,-390,15941,256,569,-100
0,-372,15936,256,571,-94
0,-375,15666,511,580,-106
0,-374,15661,511,574,-109
0,-365,15931,256,567,-104
0,-381,15943,256,573,-100
0,-392,15703,511,578,-108
0,-378,15691,511,580,-106
0,-368,15722,511,574,-93
0,-379,15719,511,567,-91
0,-339,15663,511,569,-91
0,-331,15659,511,572,-93
0,-327,15663,511,576,-95
0,-342,15683,511,574,-95
0,-359,15644,511,578,-87
0,-608,15863,511,581,-88
0,-607,15870,511,572,-91
0,-340,15644,511,575,-102
0,-359,15653,511,572,-106
0,-354,15653,511,566,-95
0,-377,15658,511,562,-92
0,-383,15658,511,563,-92
0,-375,15668,511,568,-94
0,-369,15645,511,564,-91
0,-354,15640,511,561,-89
0,-341,15638,511,565,-91
0,-349,15629,511,570,-87
0,-360,15652,511,569,-90
0,-366,15654,511,570,-95
0,-373,15892,256,574,-99
0,-372,15644,511,568,-93
0,-367,15668,511,577,-87
0,-375,15683,511,586,-97
0,-370,15929,256,586,-100
0,-357,15900,256,582,-93
0,-381,15659,511,582,-99
0,-380,15902,256,588,-91
0,-375,15910,256,582,-86
0,-354,15650,511,578,-85
0,-371,15901,256,583,-92
0,-373,15917,256,585,-106
0,-356,15660,511,584,-101
0,-356,15653,511,577,-108
0,-372,15630,511,577,-101
0,-377,15638,511,568,-103
0,-368,15666,511,571,-100
0,-367,15678,511,573,-95
0,-377,15929,256,576,-91
0,-351,15907,256,576,-87
0,-354,15918,256,569,-91
0,-365,15919,256,571,-85
0,-376,15920,256,571,-99
0,-364,15913,256,569,-102
0,-358,15928,256,575,-105
0,-354,15950,256,578,-103
0,-347,15933,256,583,-93
0,-362,15674,511,573,-93
0,-353,15671,511,571,-100
0,-365,15659,511,574,-86
0,-367,15656,511,574,-84
0,-351,15668,511,579,-93
0,-362,15664,511,575,-93
0,-364,15663,511,572,-93
0,-365,15662,511,567,-91
0,-364,15667,511,571,-87
0,-370,15676,511,575,-89
0,-372,15665,511,577,-90
0,-372,15646,511,579,-92
0,-388,15629,511,581,-97
0,-380,15885,256,581,-102
0,-376,15898,256,587,-97
0,-372,15638,511,584,-93
0,-384,15625,511,580,-99
0,-391,15643,511,570,-100
0,-375,15662,511,570,-98
0,-390,15653,511,574,-90
0,-395,15678,511,574,-86
0,-398,15664,511,566,-96
0,-380,15645,511,564,-91
0,-366,15623,511,561,-100
0,-366,15651,511,565,-94
0,-346,15662,511,566,-101
0,-340,15655,511,567,-100
0,-374,15687,511,567,-99
0,-360,15692,511,570,-92
0,-369,15685,511,574,-90
0,-376,15681,511,568,-97
0,-369,15680,511,561,-102
0,-341,15668,511,566,-92
0,-359,15673,511,564,-85
0,-345,15668,511,570,-83
0,-339,15667,511,583,-90
0,-339,15661,511,580,-94
0,-354,15668,511,574,-98
0,-369,15647,511,574,-100
0,-359,15630,511,578,-100
0,-363,15648,511,572,-108
0,-348,15692,511,573,-104
0,-353,15689,511,577,-101
0,-353,15683,511,573,-105
0,-344,15692,511,578,-109
0,-375,15691,511,574,-111
0,-385,15683,511,569,-105
0,-369,15929,256,573,-103
0,-361,15891,256,577,-103
0,-353,15907,256,576,-93
0,-342,15658,511,569,-103
0,-353,15917,256,564,-108
0,-344,15642,511,563,-101
0,-343,15650,511,558,-93
0,-348,15659,511,573,-96
0,-362,15642,511,570,-94
0,-364,15915,256,572,-97
0,-362,15678,511,576,-97
0,-368,15684,511,577,-101
0,-371,15678,511,579,-93
0,-373,15662,511,583,-96
0,-371,15646,511,583,-102
0,-363,15648,511,583,-98
0,-352,15631,511,582,-96
0,-362,15672,511,583,-94
0,-338,15671,511,596,-92
0,-335,15670,511,596,-92
0,-376,15671,511,591,-102
0,-358,15640,511,585,-99
0,-349,15884,256,581,-106
0,-357,15633,511,581,-100
0,-343,15638,511,579,-96
0,-365,15659,511,573,-91
0,-354,15942,256,577,-101
0,-330,15680,511,575,-101
0,-341,15949,256,573,-101
0,-363,15939,256,572,-114
0,-397,15933,256,572,-116
0,-390,15686,511,575,-108
0,-383,15672,511,579,-100
0,-376,15652,511,580,-87
0,-364,15648,511,579,-92
0,-378,15668,511,567,-90
0,-374,15666,511,571,-90
0,-354,15668,511,576,-99
0,-356,15686,511,576,-92
0,-371,15946,256,574,-90
0,-367,15685,511,571,-88
0,-367,15935,256,582,-96
0,-356,15681,511,585,-92
0,-367,15696,511,573,-96
0,-368,15685,511,575,-104
0,-379,15680,511,577,-91
0,-376,15687,511,583,-87
0,-335,15690,511,585,-80
0,-324,15670,511,583,-90
0,-322,15672,511,578,-99
0,-320,15673,511,575,-101
0,-337,15679,511,564,-96
0,-371,15707,511,577,-98
0,-359,15715,511,590,-102
0,-367,15729,511,590,-102
0,-379,15723,511,583,-99
0,-373,15694,511,582,-99
0,-368,15689,511,589,-85
0,-379,15670,511,590,-79
0,-369,15668,511,587,-91
0,-379,15676,511,586,-85
0,-360,15695,511,577,-92
0,-366,15690,511,574,-86
0,-368,15668,511,583,-87
0,-349,15656,511,582,-93
0,-361,15665,511,573,-96
0,-339,15653,511,579,-94
0,-346,15899,256,585,-94
0,-360,15656,511,582,-94
0,-349,15662,511,579,-99
0,-345,15924,256,569,-101
0,-366,15945,256,572,-98
0,-369,15940,256,583,-96
0,-357,15937,256,582,-87
0,-355,15951,256,582,-83
0,-345,15907,256,579,-94
0,-351,15906,256,575,-94
0,-342,15656,511,575,-96
0,-371,15648,511,576,-109
0,-372,15657,511,580,-106
0,-345,15663,511,570,-95
0,-348,15672,511,564,-99
0,-348,15926,256,566,-104
0,-356,15925,256,567,-105
0,-351,15921,256,571,-100
0,-352,15669,511,583,-93
0,-360,15686,511,584,-102
0,-351,15687,511,571,-87
0,-354,15672,511,571,-91
0,-350,15668,511,571,-89
0,-348,15669,511,572,-102
0,-339,15915,256,577,-107
0,-335,15674,511,581,-98
0,-343,15666,511,573,-89
0,-343,15663,511,577,-96
0,-366,15678,511,575,-95
0,-384,15659,511,574,-95
0,-372,15654,511,574,-95
0,-391,15644,511,579,-104
0,-408,15663,511,584,-97
0,-394,15671,511,582,-102
0,-384,15906,256,575,-97
0,-373,15902,256,572,-94
0,-383,15909,256,582,-88
0,-364,15674,511,566,-87
0,-359,15924,256,567,-84
0,-351,15925,256,572,-84
0,-342,15942,256,572,-88
0,-369,15926,256,575,-100
0,-372,15915,256,581,-105
0,-372,15925,256,580,-95
0,-366,15910,256,581,-79
0,-361,15900,256,576,-76
0,-344,15651,511,573,-73
0,-367,15923,256,580,-76
0,-356,15933,256,577,-83
0,-375,15696,511,583,-82
0,-349,15695,511,578,-82
0,-350,15690,511,572,-77
0,-340,15905,256,569,-82
0,-341,15908,256,574,-94
0,-354,15916,256,584,-104
0,-346,15941,256,586,-111
0,-339,15955,256,580,-97
0,-343,15938,256,577,-94
0,-333,15922,256,578,-99
0,-333,15911,256,581,-95
0,-332,15929,256,568,-91
0,-353,15941,256,568,-104
0,-373,15688,511,572,-98
0,-345,15671,511,572,-85
0,-352,15923,256,572,-88
0,-348,15637,511,568,-93
0,-353,15637,511,567,-89
0,-355,15889,256,557,-82
0,-348,15651,511,552,-81
0,-341,15915,256,552,-92
0,-349,15913,256,560,-98
0,-363,15643,511,572,-90
0,-363,15652,511,572,-91
0,-359,15656,511,570,-93
0,-373,15664,511,574,-94
0,-387,15915,256,569,-101
0,-382,15927,256,566,-98
0,-369,15952,256,564,-93
0,-358,15692,511,566,-92
0,-351,15680,511,567,-95
0,-370,15681,511,571,-99
0,-383,15665,511,570,-98
0,-387,15646,511,576,-99
0,-380,15657,511,571,-95
0,-378,15666,511,568,-94
0,-371,15914,256,573,-91
0,-380,15930,256,568,-86
0,-362,15937,256,572,-89
0,-348,15921,256,572,-83
0,-355,15910,256,582,-96
0,-341,15897,256,582,-107
0,-357,15911,256,578,-111
0,-359,15917,256,569,-118
0,-365,15662,511,561,-113
0,-352,15649,511,571,-102
0,-352,15651,511,567,-98
0,-351,15662,511,568,-90
0,-343,15678,511,569,-88
0,-356,15943,256,581,-88
0,-349,15688,511,580,-94
0,-352,15692,511,569,-90
0,-361,15684,511,580,-92
0,-366,15683,511,585,-95
0,-368,15678,511,587,-92
0,-354,15640,511,579,-99
0,-368,15634,511,566,-100
0,-379,15652,511,562,-96
0,-363,15669,511,567,-88
0,-357,15673,511,569,-95
0,-362,15670,511,576,-98
0,-354,15665,511,581,-102
0,-345,15671,511,576,-93
0,-350,15655,511,579,-96
0,-348,15670,511,587,-101
0,-344,15664,511,580,-96
0,-341,15658,511,574,-99
0,-357,15664,511,567,-100
0,-342,15687,511,580,-99
0,-351,15949,256,578,-90
0,-372,15708,511,574,-95
0,-384,15713,511,575,-103
0,-375,15687,511,577,-99
0,-349,15918,256,568,-97
0,-362,15914,256,568,-106
0,-377,15934,256,577,-107
0,-365,15938,256,574,-103
0,-370,15664,511,577,-97
0,-376,15674,511,590,-87
0,-390,15670,511,580,-94
0,-380,15653,511,570,-93
0,-378,15648,511,576,-87
0,-367,15677,511,584,-87
0,-359,15697,511,591,-92
0,-369,15687,511,579,-96
0,-363,15673,511,577,-98
0,-383,15928,256,579,-90
0,-369,15678,511,571,-97
0,-367,15658,511,566,-92
0,-351,15650,511,560,-91
0,-342,15657,511,567,-89
0,-325,15681,511,577,-84
0,-329,15687,511,587,-86
0,-330,15945,256,586,-92
0,-320,15925,256,578,-93
0,-316,15661,511,579,-86
0,-349,15662,511,574,-87
0,-370,15664,511,567,-99
0,-371,15638,511,571,-105
0,-350,15638,511,580,-98
0,-341,15651,511,572,-95
0,-346,15652,511,565,-91
0,-335,15671,511,563,-90
0,-343,15681,511,575,-98
0,-343,15667,511,579,-99
0,-328,15670,511,580,-103
0,-328,15658,511,576,-102
0,-351,15661,511,580,-97
0,-374,15921,256,584,-101
0,-367,15919,256,579,-105
0,-365,15923,256,575,-106
0,-375,15679,511,573,-104
0,-385,15665,511,581,-99
0,-373,15628,511,584,-91
0,-344,15626,511,585,-97
0,-343,15652,511,579,-106
0,-366,15668,511,571,-106
0,-364,15676,511,569,-88
0,-371,15683,511,577,-85
0,-358,15676,511,577,-88
0,-352,15678,511,578,-82
0,-356,15694,511,576,-82
0,-367,15664,511,565,-84
0,-363,15666,511,565,-86
0,-379,15914,256,568,-84
0,-389,15920,256,572,-84
0,-368,15933,256,572,-84
0,-338,15920,256,571,-87
0,-341,15678,511,574,-90
0,-357,15674,511,574,-91
0,-376,15665,511,570,-99
0,-386,15913,256,569,-105
0,-373,15911,256,570,-104
0,-388,15923,256,576,-102
0,-385,15673,511,576,-99
0,-384,15648,511,575,-101
0,-373,15659,511,575,-108
0,-379,15902,256,591,-103
0,-381,15654,511,574,-100
0,-390,15660,511,571,-99
0,-373,15653,511,572,-97
0,-364,15674,511,578,-101
0,-356,15668,511,585,-108
0,-360,15683,511,585,-99
0,-357,15920,256,582,-86
0,-343,15653,511,568,-85
0,-353,15664,511,574,-86
0,-364,15632,511,571,-93
0,-361,15907,256,568,-91
0,-373,15917,256,568,-90
0,-371,15922,256,571,-81
0,-358,15939,256,573,-85
0,-374,15685,511,568,-92
0,-362,15676,511,570,-87
0,-345,15673,511,569,-87
0,-351,15655,511,574,-92
0,-367,15639,511,581,-87
0,-364,15641,511,581,-91
0,-359,15666,511,577,-95
0,-380,15678,511,569,-94
0,-369,15664,511,567,-88
0,-362,15638,511,575,-91
0,-378,15627,511,588,-93
0,-354,15897,256,584,-96
0,-384,15911,256,580,-100
0,-381,15918,256,585,-108
0,-390,15900,256,584,-96
0,-364,15657,511,584,-97
0,-350,15912,256,573,-93
0,-363,15912,256,572,-90
0,-368,15903,256,575,-95
0,-366,15939,256,585,-96
0,-373,15938,256,580,-95
0,-367,15935,256,572,-99
0,-341,15915,256,574,-105
0,-358,15669,511,569,-99
0,-378,15655,511,586,-96
0,-383,15658,511,587,-94
0,-391,15904,256,586,-96
0,-391,15910,256,584,-100
0,-388,15907,256,580,-96
0,-371,15926,256,578,-95
0,-379,15942,256,569,-89
0,-378,15694,511,565,-86
0,-367,15674,511,571,-82
0,-375,15677,511,575,-85
0,-384,15693,511,571,-87
0,-377,15687,511,578,-90
0,-363,15680,511,578,-91
0,-356,15675,511,584,-90
0,-353,15673,511,595,-101
0,-319,15669,511,586,-102
0,-329,15676,511,574,-104
0,-325,15643,511,570,-110
0,-356,15633,511,566,-89
0,-367,15895,256,572,-88
0,-375,15889,256,580,-95
0,-370,15907,256,585,-92
0,-358,15664,511,572,-100
0,-364,15667,511,577,-103
0,-366,15671,511,577,-96
0,-345,15920,256,572,-111
0,-330,15911,256,568,-105
0,-339,15917,256,574,-83
0,-350,15647,511,583,-84
0,-355,15901,256,575,-92
0,-358,15645,511,573,-100
0,-609,16118,256,576,-98
0,-346,15908,256,579,-96
0,-356,15652,511,575,-100
0,-346,15652,511,568,-101
0,-343,15638,511,565,-95
0,-356,15646,511,565,-96
0,-359,15652,511,570,-99
0,-363,15658,511,571,-105
0,-351,15659,511,570,-105
0,-351,15648,511,569,-104
0,-344,15655,511,572,-109
0,-335,15658,511,573,-116
0,-333,15917,256,578,-118
0,-378,15905,256,578,-117
0,-354,15907,256,576,-106
0,-372,15914,256,573,-93
0,-368,15926,256,566,-101
0,-366,15907,256,571,-104
0,-376,15648,511,571,-110
0,-390,15651,511,572,-100
0,-370,15641,511,576,-110
0,-364,15636,511,574,-113
0,-346,15648,511,575,-98
0,-340,15643,511,581,-93
0,-346,15634,511,581,-90
0,-347,15663,511,579,-85
0,-361,15686,511,574,-83
0,-356,15671,511,585,-81
0,-367,15688,511,583,-85
0,-350,15672,511,587,-93
0,-374,15680,511,585,-99
0,-369,15665,511,580,-102
0,-358,15678,511,574,-97
0,-359,15668,511,574,-103
0,-363,15930,256,572,-99
0,-360,15925,256,569,-105
0,-355,15652,511,574,-94
0,-350,15913,256,573,-90
0,-349,15628,511,570,-94
0,-351,15641,511,562,-101
0,-370,15649,511,567,-96
0,-356,15643,511,570,-98
0,-360,15645,511,566,-96
0,-377,15634,511,559,-96
0,-354,15636,511,569,-86
0,-349,15632,511,571,-95
0,-365,15632,511,570,-95
0,-366,15880,256,573,-91
0,-372,15889,256,577,-100
0,-351,15634,511,582,-98
0,-355,15649,511,582,-88
0,-370,15655,511,581,-92
0,-380,15661,511,585,-93
0,-377,15661,511,580,-96
0,-364,15653,511,575,-97
0,-347,15937,256,571,-93
0,-359,15680,511,581,-95
0,-365,15665,511,582,-98
0,-352,15671,511,580,-100
0,-372,15681,511,574,-104
0,-365,15923,256,582,-105
0,-350,15928,256,574,-94
0,-340,15934,256,576,-89
0,-343,15689,511,578,-94
0,-351,15923,256,581,-93
0,-338,15650,511,578,-96
0,-343,15925,256,582,-89
0,-362,15680,511,578,-83
0,-361,15934,256,584,-96
0,-373,15678,511,583,-107
0,-371,15942,256,578,-97
0,-364,15671,511,590,-90
0,-363,15671,511,590,-83
0,-350,15673,511,590,-85
0,-331,15688,511,586,-83
0,-356,15661,511,582,-86
0,-359,15660,511,574,-89
0,-364,15660,511,576,-97
0,-371,15641,511,579,-86
0,-388,15894,256,571,-89
0,-376,15900,256,566,-98
0,-359,15633,511,568,-105
0,-329,15645,511,571,-109
0,-326,15628,511,566,-101
0,-336,15625,511,569,-99
0,-341,15646,511,578,-93
0,-352,15641,511,576,-94
0,-366,15630,511,574,-94
0,-603,15871,511,572,-100
0,-351,15894,256,568,-102
0,-355,15674,511,569,-101
0,-338,15676,511,568,-103
0,-340,15916,256,566,-108
0,-342,15913,256,573,-103
0,-368,15922,256,578,-101
0,-369,15910,256,578,-97
0,-371,15659,511,575,-100
0,-375,15906,256,577,-100
0,-355,15647,511,579,-98
0,-345,15630,511,575,-100
0,-313,15650,511,571,-97
0,-329,15664,511,563,-101
0,-343,15646,511,566,-98
0,-334,15665,511,567,-95
0,-333,15662,511,572,-94
0,-340,15652,511,565,-96
0,-356,15662,511,572,-88
0,-360,15667,511,579,-93
0,-347,15654,511,583,-97
0,-331,15656,511,575,-100
0,-345,15916,256,570,-93
0,-347,15669,511,568,-97
0,-352,15916,256,569,-103
0,-366,15654,511,572,-104
0,-369,15655,511,579,-97
0,-351,15638,511,579,-97
0,-364,15628,511,582,-95
0,-359,15635,511,574,-99
0,-378,15658,511,569,-98
0,-366,15680,511,572,-99
0,-353,15684,511,572,-106
0,-342,15673,511,563,-96
0,-367,15677,511,561,-96
0,-352,15915,256,559,-100
0,-350,15906,256,568,-93
0,-359,15895,256,566,-90
0,-363,15888,256,567,-86
0,-343,15889,256,575,-93
0,-356,15914,256,578,-100
0,-374,15663,511,573,-97
0,-372,15644,511,579,-91
0,-357,15632,511,571,-92
0,-364,15895,256,570,-90
0,-366,15934,256,575,-97
0,-383,15675,511,578,-95
0,-364,15660,511,573,-83
0,-378,15648,511,575,-80
0,-376,15665,511,574,-91
0,-375,15654,511,579,-91
0,-369,15640,511,582,-92
0,-351,15655,511,591,-98
0,-332,15917,256,591,-99
0,-340,15641,511,589,-90
0,-357,15625,511,588,-92
0,-334,15636,511,572,-89
0,-324,15640,511,571,-89
0,-341,15679,511,571,-94
0,-362,15690,511,566,-100
0,-349,15698,511,564,-92
0,-355,15691,511,566,-94
0,-351,15676,511,566,-95
0,-365,15673,511,572,-101
0,-358,15688,511,565,-105
0,-373,15691,511,560,-95
0,-376,15687,511,567,-101
0,-364,15683,511,573,-109
0,-363,15663,511,579,-107
0,-376,15931,256,585,-104
0,-375,15690,511,577,-100
0,-387,15943,256,574,-102
0,-369,15679,511,574,-108
0,-354,15923,256,568,-105
0,-348,15941,256,564,-103
0,-360,15944,256,573,-94
0,-346,15669,511,575,-99
0,-357,15682,511,572,-107
0,-354,15666,511,570,-102
0,-332,15651,511,572,-95
0,-347,15665,511,575,-90
0,-348,15908,256,568,-89
0,-344,15941,256,566,-86
0,-350,15701,511,567,-83
0,-365,15676,511,566,-84
0,-367,15951,256,570,-92
0,-373,15913,256,574,-98
0,-353,15654,511,567,-99
0,-348,15658,511,565,-104
0,-348,15899,256,572,-104
0,-347,15637,511,578,-97
0,-350,15652,511,577,-93
0,-369,15652,511,563,-98
0,-368,15899,256,562,-92
0,-367,15656,511,560,-84
0,-375,15659,511,570,-82
0,-382,15632,511,579,-84
0,-381,15622,511,578,-87
0,-358,15642,511,575,-100
0,-342,15639,511,585,-99
0,-329,15635,511,579,-98
0,-332,15904,256,574,-92
0,-337,15909,256,570,-91
0,-321,15908,256,577,-91
0,-323,15901,256,581,-107
0,-322,15643,511,581,-96
0,-335,15653,511,571,-86
0,-357,15669,511,574,-90
0,-361,15678,511,572,-92
0,-369,15685,511,567,-93
0,-365,15938,256,570,-86
0,-361,15657,511,568,-93
0,-366,15913,256,573,-100
0,-374,15924,256,573,-100
0,-350,15672,511,567,-94
0,-362,15658,511,573,-97
0,-352,15922,256,572,-92
0,-338,15634,511,572,-104
0,-349,15896,256,573,-111
0,-359,15646,511,571,-109
0,-347,15647,511,575,-106
0,-342,15675,511,576,-96
0,-339,15649,511,575,-113
0,-349,15892,256,575,-108
255,-344,15915,256,567,-101
0,-360,15906,256,570,-102
0,-346,15900,256,577,-103
0,-356,15882,256,582,-99
0,-368,15641,511,577,-98
0,-359,15666,511,577,-95
0,-345,15659,511,574,-94
0,-362,15640,511,577,-93
0,-345,15656,511,577,-101
0,-346,15654,511,572,-106
0,-351,15662,511,570,-99
0,-356,15940,256,563,-98
0,-330,15651,511,560,-96
0,-341,15643,511,563,-98
0,-343,15653,511,576,-94
0,-354,15668,511,576,-91
0,-363,15936,256,576,-90
0,-362,15687,511,575,-90
0,-353,15934,256,571,-99
0,-342,15668,511,569,-100
0,-341,15664,511,575,-98
0,-371,15941,256,569,-98
0,-359,15934,256,572,-99
0,-366,15653,511,572,-96
0,-356,15663,511,575,-88
0,-346,15672,511,577,-88
0,-349,15937,256,574,-101
0,-362,15920,256,568,-94
0,-384,15917,256,580,-89
0,-394,15927,256,581,-104
0,-403,15930,256,581,-103
0,-401,15678,511,573,-102
0,-376,15671,511,566,-98
0,-364,15669,511,574,-101
0,-359,15930,256,575,-102
0,-344,15663,511,569,-104
0,-350,15653,511,567,-97
0,-358,15900,256,569,-98
0,-346,15911,256,572,-91
0,-346,15904,256,567,-95
0,-351,15645,511,565,-102
0,-348,15636,511,573,-103
0,-326,15657,511,590,-96
0,-324,15645,511,585,-93
0,-334,15645,511,580,-103
0,-335,15660,511,580,-101
0,-331,15658,511,581,-94
0,-345,15668,511,575,-93
0,-332,15952,256,570,-90
0,-345,15956,256,576,-87
0,-356,15682,511,573,-97
0,-349,15679,511,569,-99
0,-352,15666,511,577,-101
0,-357,15672,511,582,-93
0,-365,15662,511,576,-99
0,-371,15688,511,577,-105
0,-353,15679,511,578,-106
0,-353,15671,511,575,-97
0,-346,15647,511,578,-83
0,-347,15644,511,582,-86
0,-357,15648,511,579,-89
0,-355,15657,511,581,-95
0,-334,15912,256,580,-93
0,-340,15907,256,576,-104
0,-345,15896,256,579,-92
0,-353,15877,256,582,-94
0,-327,15635,511,581,-91
0,-335,15904,256,576,-86
0,-331,15920,256,577,-87
0,-327,15911,256,580,-85
0,-333,15917,256,579,-80
0,-345,15918,256,583,-87
0,-343,15934,256,589,-93
0,-334,15932,256,598,-93
0,-348,15652,511,587,-92
0,-334,15658,511,595,-91
0,-331,15649,511,587,-90
0,-341,15639,511,582,-91
0,-350,15649,511,581,-96
0,-368,15659,511,579,-86
0,-350,15680,511,581,-93
0,-339,15652,511,567,-92
0,-325,15642,511,565,-94
0,-318,15638,511,574,-97
0,-320,15629,511,574,-96
0,-348,15641,511,573,-92
0,-343,15897,256,575,-90
0,-360,15891,256,577,-93
0,-364,15651,511,576,-99
0,-378,15666,511,572,-102
0,-375,15677,511,574,-101
0,-384,15681,511,575,-98
0,-386,15679,511,578,-90
0,-367,15669,511,578,-89
0,-372,15896,256,575,-94
0,-372,15881,256,573,-105
0,-374,15895,256,566,-107
0,-348,15658,511,566,-101
0,-347,15934,256,571,-97
0,-342,15924,256,570,-102
0,-342,15667,511,572,-99
0,-363,15669,511,565,-105
0,-345,15638,511,564,-111
0,-335,15657,511,564,-103
0,-333,15669,511,567,-95
0,-331,15651,511,582,-100
0,-338,15891,256,577,-99
0,-343,15916,256,575,-90
0,-355,15914,256,578,-91
0,-352,15650,511,572,-87
0,-360,15674,511,577,-96
0,-354,15680,511,577,-87
0,-332,15655,511,574,-84
0,-351,15918,256,572,-89
0,-324,15914,256,571,-94
0,-323,15900,256,569,-95
0,-331,15911,256,564,-103
0,-338,15914,256,562,-102
0,-339,15925,256,573,-95
0,-350,15948,256,576,-100
0,-335,15694,511,578,-96
0,-339,15680,511,576,-93
0,-330,15665,511,574,-100
0,-345,15640,511,570,-104
0,-359,15630,511,571,-102
0,-360,15630,511,568,-97
0,-355,15629,511,574,-99
0,-344,15661,511,574,-91
0,-362,15668,511,570,-87
0,-370,15674,511,569,-94
0,-348,15669,511,569,-102
0,-363,15662,511,575,-102
0,-364,15646,511,581,-94
0,-354,15663,511,566,-94
0,-361,15944,256,565,-82
0,-357,15927,256,578,-83
0,-352,15682,511,579,-84
0,-352,15659,511,583,-79
0,-345,15638,511,589,-79
0,-369,15651,511,588,-81
0,-394,15665,511,590,-86
0,-398,15640,511,580,-91
0,-387,15655,511,576,-93
0,-383,15663,511,566,-97
0,-377,15677,511,557,-90
0,-373,15936,256,562,-92
0,-373,15664,511,569,-86
0,-361,15685,511,561,-77
0,-363,15680,511,561,-86
0,-374,15676,511,568,-90
0,-378,15666,511,574,-93
0,-376,15678,511,570,-99
0,-365,15682,511,565,-102
0,-373,15927,256,569,-98
0,-364,15663,511,583,-92
0,-369,15665,511,573,-83
0,-356,15680,511,571,-84
0,-363,15667,511,577,-90
0,-359,15665,511,577,-99
0,-353,15919,256,577,-93
0,-354,15665,511,578,-90
0,-341,15922,256,574,-96
0,-342,15900,256,574,-93
0,-349,15898,256,580,-97
0,-334,15659,511,586,-91
0,-330,15655,511,586,-88
0,-337,15665,511,589,-81
0,-358,15933,256,583,-86
0,-387,15676,511,580,-101
0,-374,15929,256,577,-102
0,-382,15687,511,572,-91
0,-378,15942,256,574,-89
0,-378,15933,256,566,-94
0,-368,15681,511,564,-98
0,-357,15906,256,563,-102
0,-349,15907,256,571,-101
0,-349,15650,511,573,-105
0,-350,15920,256,572,-101
0,-354,15900,256,575,-99
0,-362,15648,511,575,-93
0,-367,15677,511,570,-86
0,-353,15688,511,564,-92
0,-368,15681,511,564,-103
0,-374,15668,511,574,-100
0,-374,15689,511,574,-97
0,-376,15680,511,575,-98
0,-379,15689,511,571,-101
0,-383,15919,256,576,-95
0,-382,15645,511,586,-93
0,-372,15916,256,586,-92
0,-352,15926,256,581,-93
0,-341,15907,256,578,-107
0,-340,15646,511,575,-104
0,-360,15929,256,569,-105
0,-353,15913,256,571,-104
0,-343,15897,256,572,-100
0,-365,15630,511,575,-93
0,-383,15887,256,577,-100
0,-387,15657,511,570,-104
0,-390,15653,511,569,-99
0,-401,15656,511,574,-88
0,-364,15641,511,581,-85
0,-352,15656,511,588,-87
0,-356,15646,511,585,-95
0,-341,15642,511,577,-90
0,-363,15671,511,570,-96
0,-372,15923,256,567,-99
0,-372,15666,511,563,-99
0,-380,15677,511,566,-102
0,-357,15662,511,569,-91
0,-338,15626,511,566,-86
0,-350,15625,511,561,-92
0,-344,15639,511,568,-103
0,-352,15645,511,578,-101
0,-367,15654,511,582,-98
0,-384,15916,256,591,-94
0,-378,15662,511,581,-89
0,-367,15679,511,571,-96
0,-387,15686,511,568,-96
0,-383,15670,511,561,-92
0,-395,15669,511,567,-97
0,-388,15678,511,567,-98
0,-361,15667,511,560,-93
0,-379,15656,511,565,-94
0,-385,15643,511,566,-100
0,-393,15671,511,560,-116
0,-386,15664,511,565,-106
0,-381,15649,511,569,-100
0,-385,15666,511,561,-102
0,-373,15674,511,570,-102
0,-377,15657,511,576,-106
0,-366,15672,511,577,-102
0,-358,15662,511,575,-103
0,-339,15919,256,579,-97
0,-331,15666,511,588,-94
0,-346,15663,511,582,-84
0,-351,15677,511,566,-84
0,-358,15658,511,566,-89
0,-350,15656,511,566,-99
0,-363,15672,511,568,-99
0,-372,15666,511,566,-87
0,-379,15923,256,578,-80
0,-363,15915,256,569,-79
0,-361,15889,256,560,-88
0,-362,15627,511,565,-88
0,-336,15638,511,564,-84
0,-357,15636,511,560,-86
0,-376,15640,511,564,-90
0,-365,15900,256,580,-96
0,-346,15900,256,575,-98
0,-377,15651,511,569,-95
0,-367,15636,511,583,-103
0,-394,15644,511,586,-108
0,-377,15650,511,577,-92
0,-339,15663,511,570,-88
0,-310,15659,511,565,-102
0,-327,15650,511,564,-95
0,-362,15643,511,571,-89
0,-375,15673,511,573,-94
0,-375,15933,256,574,-96
0,-335,15674,511,578,-100
0,-367,15937,256,577,-101
0,-377,15685,511,578,-104
0,-372,15691,511,578,-103
0,-378,15940,256,578,-99
0,-358,15687,511,585,-106
0,-363,15925,256,583,-98
0,-365,15682,511,581,-93
0,-332,15680,511,579,-101
0,-328,15927,256,582,-105
0,-341,15669,511,585,-96
0,-338,15667,511,588,-101
0,-358,15655,511,576,-88
0,-369,15651,511,569,-89
0,-352,15660,511,566,-91
0,-341,15663,511,566,-95
0,-346,15651,511,571,-84
0,-342,15646,511,572,-79
0,-354,15663,511,565,-80
0,-353,15688,511,572,-85
0,-372,15696,511,572,-90
0,-378,15690,511,568,-88
0,-362,15674,511,563,-87
0,-345,15681,511,559,-93
0,-334,15655,511,566,-88
0,-361,15647,511,570,-94
0,-357,15905,256,576,-90
0,-345,15913,256,581,-84
0,-350,15873,256,571,-91
0,-340,15640,511,571,-85
0,-351,15632,511,576,-87
0,-373,15645,511,575,-97
0,-375,15651,511,573,-101
0,-373,15653,511,571,-106
0,-375,15905,256,573,-106
0,-358,15904,256,576,-102
0,-362,15891,256,577,-95
0,-365,15910,256,568,-91
0,-349,15678,511,568,-80
0,-353,15664,511,571,-87
0,-343,15645,511,576,-94
0,-334,15655,511,573,-98
0,-357,15658,511,583,-102
0,-346,15672,511,585,-100
0,-340,15683,511,569,-97
0,-383,15666,511,576,-95
0,-370,15667,511,577,-99
0,-351,15667,511,574,-103
0,-342,15913,256,568,-112
0,-347,15919,256,572,-99
0,-354,15925,256,581,-91
0,-347,15930,256,573,-94
0,-350,15928,256,570,-97
0,-350,15915,256,565,-94
0,-341,15663,511,564,-107
0,-363,15914,256,570,-105
0,-378,15901,256,567,-107
0,-368,15904,256,564,-108
0,-374,15914,256,568,-106
0,-364,15928,256,567,-106
0,-393,15667,511,571,-107
0,-363,15660,511,579,-112
0,-383,15656,511,575,-97
0,-379,15643,511,586,-88
0,-377,15651,511,581,-91
0,-389,15691,511,582,-96
0,-362,15693,511,574,-97
0,-376,15675,511,574,-91
0,-368,15672,511,576,-88
0,-381,15695,511,572,-95
0,-386,15691,511,580,-104
0,-371,15681,511,576,-108
0,-373,15658,511,573,-97
0,-358,15644,511,572,-94
0,-361,15634,511,573,-98
0,-374,15887,256,574,-94
0,-368,15906,256,578,-102
0,-366,15882,256,581,-103
0,-381,15873,256,582,-104
0,-379,15892,256,579,-105
0,-394,15919,256,577,-103
0,-367,15907,256,585,-95
0,-348,15891,256,582,-91
0,-342,15905,256,567,-101
0,-349,15897,256,566,-106
0,-365,15892,256,572,-102
0,-360,15908,256,577,-99
0,-362,15895,256,579,-97
0,-358,15658,511,578,-94
0,-335,15676,511,577,-104
0,-357,15654,511,578,-105
0,-364,15669,511,572,-100
0,-352,15675,511,573,-100
0,-360,15695,511,574,-90
0,-369,15670,511,586,-85
0,-384,15678,511,582,-90
0,-374,15679,511,567,-84
0,-365,15662,511,572,-91
0,-351,15655,511,576,-90
0,-363,15679,511,579,-106
0,-352,15671,511,570,-107
0,-345,15677,511,569,-104
0,-349,15671,511,571,-105
0,-342,15927,256,571,-98
0,-363,15932,256,579,-100
0,-371,15675,511,588,-98
0,-375,15669,511,585,-90
0,-375,15674,511,576,-93
0,-365,15656,511,574,-97
0,-390,15651,511,583,-104
0,-372,15666,511,588,-92
0,-385,15654,511,582,-92
0,-363,15650,511,578,-98
0,-356,15649,511,585,-96
0,-376,15656,511,587,-82
0,-365,15661,511,583,-83
0,-368,15677,511,575,-92
0,-362,15672,511,563,-99
0,-351,15674,511,566,-95
0,-379,15660,511,573,-103
0,-375,15923,256,578,-101
0,-360,15925,256,578,-104
0,-336,15665,511,581,-108
0,-333,15666,511,587,-105
0,-359,15663,511,591,-105
0,-356,15660,511,583,-108
0,-356,15654,511,580,-92
0,-368,15655,511,582,-85
0,-378,15648,511,585,-92
0,-379,15660,511,580,-94
0,-374,15686,511,576,-93
0,-373,15668,511,582,-95
0,-377,15671,511,579,-90
0,-361,15682,511,573,-93
0,-356,15693,511,583,-92
0,-341,15684,511,591,-91
0,-352,15675,511,583,-93
0,-362,15675,511,577,-95
0,-350,15667,511,575,-103
0,-333,15664,511,569,-104
0,-348,15646,511,573,-99
0,-375,15652,511,567,-101
0,-364,15643,511,571,-101
0,-366,15924,256,566,-100
0,-353,15926,256,571,-93
0,-345,15673,511,564,-102
0,-360,15697,511,562,-99
0,-380,15937,256,575,-94
0,-393,15926,256,571,-100
0,-378,15921,256,571,-99
0,-382,15934,256,576,-94
0,-388,15952,256,576,-93
0,-399,15944,256,572,-95
0,-369,15941,256,575,-95
0,-351,15945,256,573,-94
0,-339,15661,511,580,-97
0,-358,15682,511,570,-98
0,-354,15684,511,567,-100
0,-352,15679,511,564,-104
0,-363,15667,511,567,-110
0,-363,15665,511,562,-106
0,-368,15660,511,567,-103
0,-367,15652,511,569,-101
0,-367,15638,511,573,-100
0,-349,15645,511,579,-109
0,-362,15649,511,576,-101
0,-353,15661,511,578,-93
0,-345,15670,511,580,-92
0,-336,15651,511,572,-88
0,-355,15647,511,574,-89
0,-380,15649,511,578,-87
0,-379,15668,511,580,-86
0,-375,15661,511,581,-84
0,-381,15650,511,577,-82
0,-378,15652,511,572,-87
0,-378,15649,511,569,-90
0,-354,15648,511,574,-92
0,-349,15648,511,577,-87
0,-342,15664,511,573,-91
0,-333,15663,511,572,-97
0,-356,15665,511,578,-95
0,-362,15656,511,572,-98
0,-347,15673,511,579,-98
0,-350,15696,511,583,-104
0,-351,15682,511,580,-104
0,-348,15676,511,576,-100
0,-352,15677,511,572,-104
0,-341,15694,511,574,-94
0,-340,15936,256,575,-92
0,-366,15675,511,574,-99
0,-361,15671,511,566,-94
0,-344,15924,256,577,-99
0,-338,15663,511,579,-97
0,-374,15903,256,580,-99
0,-378,15650,511,583,-108
0,-378,15651,511,573,-107
0,-369,15652,511,572,-107
0,-361,15666,511,569,-100
0,-350,15668,511,570,-90
0,-344,15685,511,576,-93
0,-352,15684,511,577,-107
0,-354,15685,511,575,-105
0,-359,15677,511,576,-110
0,-345,15654,511,577,-120
0,-355,15673,511,578,-110
0,-370,15906,256,574,-103
0,-380,15896,256,574,-97
0,-370,15900,256,563,-96
0,-367,15636,511,551,-97
0,-341,15652,511,554,-88
0,-356,15881,256,556,-86
0,-368,15645,511,570,-101
0,-368,15649,511,569,-101
0,-354,15674,511,564,-92
0,-355,15684,511,571,-90
0,-345,15697,511,573,-98
0,-364,15922,256,572,-109
0,-353,15909,256,575,-105
0,-348,15898,256,574,-90
0,-342,15883,256,573,-94
0,-358,15651,511,574,-89
0,-349,15911,256,586,-87
0,-345,15666,511,590,-98
0,-345,15936,256,587,-103
0,-343,15931,256,584,-104
0,-355,15667,511,590,-100
0,-363,15653,511,580,-98
0,-355,15662,511,566,-106
0,-358,15663,511,563,-105
0,-359,15664,511,563,-106
0,-376,15671,511,568,-104
0,-366,15665,511,576,-108
0,-357,15922,256,577,-106
0,-377,15924,256,577,-99
0,-386,15645,511,591,-96
0,-376,15659,511,587,-106
0,-353,15652,511,582,-116
0,-371,15624,511,590,-101
0,-356,15649,511,597,-98
0,-356,15668,511,594,-103
0,-355,15904,256,591,-101
0,-371,15650,511,585,-90
0,-392,15892,256,575,-98
0,-378,15644,511,569,-102
0,-385,15673,511,580,-91
0,-371,15677,511,582,-82
0,-365,15673,511,578,-84
0,-376,15656,511,575,-89
0,-357,15637,511,578,-88
0,-372,15632,511,569,-94
0,-387,15652,511,572,-99
0,-387,15654,511,575,-100
0,-380,15663,511,575,-86
0,-373,15648,511,580,-91
0,-357,15649,511,573,-97
0,-345,15660,511,574,-87
0,-338,15629,511,567,-98
0,-351,15637,511,567,-104
0,-321,15634,511,571,-103
0,-347,15648,511,578,-93
0,-364,15902,256,571,-97
0,-378,15651,511,576,-95
0,-357,15654,511,574,-89
0,-365,15675,511,577,-82
0,-367,15672,511,583,-84
0,-362,15669,511,580,-93
0,-367,15659,511,572,-103
0,-361,15673,511,570,-90
0,-352,15671,511,570,-83
0,-342,15918,256,574,-90
0,-345,15911,256,576,-96
0,-354,15906,256,567,-91
0,-340,15648,511,571,-100
0,-371,15888,256,577,-102
0,-365,15910,256,576,-100
0,-371,15932,256,579,-102
0,-365,15931,256,579,-100
0,-362,15938,256,583,-106
0,-364,15921,256,582,-107
0,-373,15662,511,577,-99
0,-362,15920,256,581,-96
0,-339,15908,256,577,-100
0,-346,15910,256,572,-87
0,-344,15905,256,569,-84
0,-377,15909,256,559,-83
0,-371,15629,511,564,-88
0,-385,15622,511,563,-88
0,-389,15630,511,556,-85
0,-387,15657,511,561,-91
0,-366,15674,511,565,-93
0,-360,15647,511,565,-87
0,-357,15637,511,573,-85
0,-362,15635,511,576,-88
0,-374,15632,511,579,-85
0,-360,15650,511,578,-77
0,-342,15646,511,589,-75
0,-322,15650,511,584,-79
0,-350,15671,511,575,-84
0,-357,15919,256,568,-93
0,-360,15912,256,570,-98
0,-358,15654,511,582,-94
0,-356,15643,511,570,-92
0,-361,15634,511,568,-101
0,-363,15642,511,572,-102
0,-362,15642,511,576,-96
0,-355,15659,511,581,-99
0,-350,15650,511,577,-98
0,-363,15651,511,569,-89
0,-341,15669,511,577,-99
0,-329,15670,511,588,-96
0,-321,15676,511,578,-88
0,-328,15646,511,570,-92
0,-367,15666,511,566,-89
0,-375,15942,256,558,-86
0,-362,15939,256,557,-85
0,-366,15674,511,561,-95
0,-365,15648,511,567,-96
0,-383,15637,511,572,-105
0,-371,15634,511,570,-105
0,-364,15660,511,573,-105
0,-364,15673,511,572,-105
0,-378,15673,511,578,-103
0,-380,15673,511,579,-102
0,-368,15668,511,583,-97
0,-376,15655,511,583,-101
0,-376,15919,256,583,-92
0,-358,15894,256,584,-91
0,-356,15634,511,581,-95
0,-362,15629,511,578,-97
0,-361,15650,511,582,-93
0,-340,15648,511,573,-93
0,-345,15670,511,569,-91
0,-342,15690,511,570,-105
0,-367,15693,511,563,-99
0,-349,15938,256,565,-86
0,-343,15914,256,573,-90
0,-326,15907,256,577,-97
0,-345,15657,511,581,-101
0,-364,15637,511,583,-100
0,-367,15912,256,575,-96
0,-350,15662,511,571,-91
0,-346,15663,511,573,-96
0,-338,15665,511,569,-100
0,-360,15672,511,574,-101
0,-335,15666,511,580,-114
0,-332,15665,511,575,-109
0,-328,15661,511,567,-104
0,-353,15666,511,569,-98
0,-353,15650,511,583,-88
0,-351,15634,511,582,-92
0,-362,15651,511,578,-101
0,-327,15674,511,574,-99
0,-341,15669,511,576,-94
0,-344,15669,511,578,-93
0,-353,15677,511,573,-95
0,-363,15687,511,574,-95
0,-363,15939,256,576,-96
0,-361,15668,511,565,-100
0,-352,15692,511,560,-104
0,-369,15963,256,571,-101
0,-347,15695,511,578,-93
0,-368,15935,256,581,-94
0,-363,15686,511,565,-95
0,-374,15688,511,573,-97
0,-372,15672,511,582,-96
0,-368,15904,256,580,-92
0,-364,15908,256,580,-97
0,-370,15927,256,581,-88
0,-356,15931,256,580,-93
0,-349,15916,256,583,-104
0,-352,15912,256,580,-103
0,-351,15642,511,575,-101
0,-365,15922,256,571,-93
0,-368,15924,256,571,-92
0,-372,15903,256,575,-94
0,-364,15642,511,574,-100
0,-360,15915,256,571,-98
0,-361,15939,256,573,-95
0,-365,15673,511,566,-95
0,-367,15678,511,567,-94
0,-352,15668,511,571,-103
0,-367,15667,511,574,-108
0,-393,15930,256,582,-95
0,-382,15925,256,584,-95
0,-364,15917,256,579,-94
0,-362,15668,511,569,-98
0,-353,15645,511,570,-95
0,-363,15641,511,576,-95
0,-365,15644,511,576,-89
0,-640,15871,511,577,-93
0,-373,15644,511,582,-109
0,-368,15916,256,583,-93
0,-376,15637,511,579,-94
0,-371,15896,256,582,-94
0,-358,15913,256,583,-91
0,-359,15906,256,582,-98
0,-363,15907,256,589,-96
0,-371,15920,256,590,-100
0,-364,15932,256,581,-103
0,-352,15661,511,577,-98
0,-354,15672,511,574,-101
0,-354,15663,511,580,-101
0,-373,15686,511,578,-97
0,-392,15675,511,574,-101
0,-389,15671,511,571,-99
0,-362,15661,511,578,-100
0,-378,15652,511,580,-104
0,-378,15652,511,582,-105
0,-347,15653,511,582,-103
0,-341,15637,511,579,-105
0,-339,15643,511,576,-111
0,-359,15923,256,583,-109
0,-368,15920,256,583,-103
0,-362,15651,511,582,-104
0,-360,15671,511,577,-99
0,-358,15639,511,583,-85
0,-364,15646,511,582,-84
0,-368,15649,511,569,-88
0,-361,15646,511,564,-94
0,-377,15651,511,562,-89
0,-382,15640,511,560,-87
0,-385,15916,256,560,-99
0,-387,15651,511,553,-103
0,-402,15647,511,556,-99
0,-405,15889,256,561,-96
0,-394,15659,511,567,-90
0,-402,15653,511,579,-81
0,-372,15656,511,574,-89
0,-340,15662,511,585,-92
0,-330,15672,511,592,-89
0,-341,15653,511,594,-96
0,-369,15637,511,597,-95
0,-371,15644,511,588,-99
0,-355,15650,511,580,-102
0,-368,15671,511,576,-95
0,-361,15682,511,574,-93
0,-345,15928,256,576,-100
0,-363,15899,256,584,-97
0,-380,15895,256,584,-96
0,-366,15647,511,583,-105
0,-378,15908,256,581,-109
0,-387,15909,256,578,-114
0,-377,15651,511,579,-98
0,-391,15659,511,580,-99
0,-395,15658,511,580,-109
0,-377,15634,511,579,-107
0,-357,15628,511,570,-106
0,-358,15629,511,571,-93
0,-357,15648,511,572,-103
0,-370,15656,511,571,-114
0,-373,15639,511,568,-111
0,-372,15623,511,571,-106
0,-365,15642,511,567,-100
0,-354,15657,511,571,-102
0,-328,15684,511,571,-104
0,-357,15671,511,563,-96
0,-370,15684,511,571,-95
0,-356,15677,511,584,-103
0,-366,15929,256,581,-94
0,-353,15904,256,581,-94
0,-352,15886,256,590,-97
0,-350,15640,511,592,-105
0,-343,15666,511,578,-103
0,-363,15671,511,575,-97
0,-352,15653,511,578,-91
0,-358,15642,511,573,-89
0,-367,15898,256,564,-86
0,-350,15915,256,561,-88
0,-341,15638,511,561,-101
0,-335,15637,511,566,-101
0,-339,15629,511,560,-104
0,-340,15629,511,557,-104
0,-330,15626,511,567,-103
0,-338,15630,511,570,-110
0,-364,15661,511,573,-95
0,-364,15679,511,564,-95
0,-367,15667,511,553,-93
0,-370,15669,511,564,-95
0,-392,15680,511,569,-87
0,-386,15674,511,566,-85
0,-371,15686,511,571,-89
0,-368,15690,511,564,-90
0,-375,15695,511,568,-87
0,-357,15706,511,570,-89
0,-367,15695,511,569,-92
0,-354,15671,511,574,-93
0,-361,15662,511,582,-103
0,-373,15666,511,585,-105
0,-385,15919,256,585,-108
0,-355,15676,511,578,-100
0,-339,15633,511,570,-86
0,-349,15650,511,571,-89
0,-375,15653,511,581,-86
0,-368,15687,511,579,-90
0,-357,15698,511,588,-90
0,-350,15942,256,581,-92
0,-337,15693,511,582,-98
0,-359,15683,511,590,-89
0,-335,15689,511,590,-83
0,-358,15686,511,585,-91
0,-361,15685,511,580,-95
0,-355,15663,511,583,-108
0,-335,15904,256,582,-110
0,-328,15908,256,585,-100
0,-343,15644,511,589,-96
0,-328,15633,511,586,-98
0,-315,15648,511,586,-102
0,-317,15893,256,582,-106
0,-345,15909,256,583,-89
0,-365,15891,256,585,-90
0,-353,15907,256,584,-100
0,-352,15920,256,581,-92
0,-344,15903,256,577,-99
0,-371,15905,256,578,-107
0,-379,15901,256,569,-104
0,-366,15900,256,564,-106
0,-360,15667,511,575,-90
0,-358,15669,511,571,-78
0,-371,15664,511,575,-82
0,-395,15667,511,573,-85
0,-379,15665,511,569,-89
0,-383,15673,511,575,-89
0,-385,15675,511,578,-91
0,-367,15661,511,578,-86
0,-386,15652,511,576,-93
0,-390,15911,256,574,-105
0,-392,15917,256,569,-100
0,-392,15920,256,561,-101
0,-381,15932,256,567,-105
0,-375,15928,256,567,-94
0,-362,15898,256,564,-95
0,-362,15641,511,568,-99
0,-374,15912,256,574,-98
0,-380,15649,511,588,-94
0,-388,15664,511,596,-97
0,-375,15676,511,589,-95
0,-350,15670,511,585,-94
0,-352,15659,511,586,-93
0,-346,15647,511,580,-94
0,-375,15642,511,580,-93
0,-382,15644,511,584,-97
0,-376,15885,256,583,-103
0,-360,15909,256,584,-96
0,-343,15913,256,584,-92
0,-356,15919,256,581,-94
0,-367,15911,256,572,-91
0,-367,15654,511,576,-86
0,-363,15923,256,579,-90
0,-367,15657,511,570,-100
0,-351,15662,511,568,-103
0,-354,15651,511,572,-99
0,-336,15659,511,567,-102
0,-354,15656,511,568,-98
0,-347,15673,511,574,-97
0,-358,15693,511,573,-94
0,-363,15684,511,574,-93
0,-360,15675,511,577,-84
0,-359,15681,511,574,-94
0,-359,15696,511,574,-100
0,-352,15703,511,580,-97
0,-352,15686,511,581,-93
0,-345,15676,511,582,-100
0,-350,15928,256,576,-106
0,-334,15925,256,575,-105
0,-349,15919,256,581,-103
0,-360,15916,256,583,-103
0,-379,15895,256,584,-98
0,-383,15674,511,581,-107
0,-361,15929,256,573,-107
0,-370,15925,256,577,-106
0,-366,15687,511,570,-106
0,-381,15687,511,571,-111
0,-386,15669,511,580,-100
0,-375,15671,511,580,-103
0,-350,15663,511,577,-99
0,-350,15654,511,578,-102
0,-354,15643,511,576,-89
0,-363,15648,511,582,-91
0,-378,15636,511,577,-100
0,-387,15635,511,569,-106
0,-358,15629,511,569,-101
0,-351,15636,511,569,-93
0,-363,15645,511,576,-88
0,-373,15647,511,581,-92
0,-372,15890,256,584,-94
0,-392,15896,256,583,-92
0,-369,15648,511,574,-106
0,-346,15902,256,580,-106
0,-336,15669,511,581,-98
0,-365,15673,511,576,-101
0,-338,15939,256,582,-101
0,-359,15663,511,576,-100
0,-357,15660,511,571,-96
0,-382,15930,256,567,-99
0,-370,15688,511,574,-96
0,-377,15957,256,573,-95
0,-364,15682,511,567,-101
0,-335,15914,256,572,-104
0,-324,15647,511,577,-97
0,-319,15660,511,574,-92
0,-348,15686,511,572,-104
0,-380,15679,511,578,-112
0,-371,15679,511,582,-103
0,-358,15680,511,581,-95
0,-358,15676,511,574,-102
0,-358,15670,511,569,-105
0,-361,15931,256,575,-101
0,-371,15945,256,580,-98
0,-362,15936,256,576,-92
0,-350,15647,511,582,-97
0,-351,15905,256,585,-101
0,-336,15911,256,582,-102
0,-334,15666,511,584,-99
0,-345,15676,511,587,-98
0,-346,15673,511,584,-93
0,-351,15671,511,581,-98
0,-357,15658,511,581,-91
0,-349,15882,256,584,-91
0,-364,15636,511,577,-88
0,-367,15638,511,570,-86
0,-338,15656,511,571,-89
0,-317,15662,511,576,-84
0,-331,15667,511,579,-88
0,-345,15695,511,582,-96
0,-326,15687,511,581,-101
0,-332,15678,511,583,-99
0,-307,15657,511,579,-95
0,-319,15655,511,573,-90
0,-304,15661,511,572,-86
0,-309,15666,511,574,-89
0,-328,15665,511,575,-96
255,-328,15681,511,570,-87
0,-336,15677,511,573,-90
0,-325,15670,511,576,-98
0,-325,15678,511,577,-89
0,-323,15672,511,573,-85
0,-304,15694,511,576,-86
0,-334,15671,511,580,-88
0,-353,15665,511,574,-84
0,-352,15638,511,575,-88
0,-346,15909,256,582,-91
0,-349,15659,511,581,-94
0,-350,15913,256,567,-94
0,-335,15666,511,555,-98
0,-363,15678,511,565,-100
0,-376,15672,511,574,-92
0,-362,15665,511,573,-99
0,-360,15925,256,576,-103
0,-375,15917,256,581,-100
0,-389,15656,511,580,-97
0,-383,15635,511,574,-96
0,-368,15640,511,582,-100
0,-371,15912,256,580,-101
0,-368,15663,511,578,-108
0,-362,15906,256,585,-99
0,-347,15646,511,596,-99
0,-340,15640,511,587,-110
0,-361,15635,511,579,-119
0,-387,15644,511,575,-113
0,-381,15647,511,574,-111
0,-385,15658,511,577,-99
0,-379,15643,511,581,-95
0,-370,15927,256,576,-103
0,-368,15918,256,580,-102
0,-362,15928,256,574,-98
0,-367,15666,511,572,-100
0,-374,15663,511,574,-105
0,-353,15652,511,579,-103
0,-361,15626,511,577,-98
0,-363,15647,511,576,-103
0,-362,15908,256,573,-102
0,-347,15649,511,565,-101
0,-355,15900,256,568,-96
0,-366,15897,256,574,-90
0,-359,15910,256,570,-83
0,-349,15679,511,567,-87
0,-365,15667,511,574,-94
0,-373,15659,511,578,-92
0,-387,15649,511,575,-95
0,-381,15659,511,579,-100
0,-377,15684,511,564,-98
0,-348,15692,511,567,-113
0,-331,15664,511,572,-107
0,-366,15660,511,563,-99
0,-350,15660,511,567,-107
0,-359,15660,511,573,-104
0,-355,15894,256,570,-105
0,-366,15896,256,557,-102
0,-363,15899,256,562,-97
0,-393,15662,511,567,-95
0,-392,15683,511,571,-96
0,-372,15664,511,577,-94
0,-360,15901,256,575,-93
0,-339,15659,511,572,-91
0,-345,15664,511,574,-92
0,-350,15653,511,566,-89
0,-363,15935,256,559,-85
0,-329,15941,256,555,-100
0,-329,15928,256,559,-106
0,-343,15683,511,561,-118
0,-328,15693,511,574,-103
0,-333,15696,511,583,-104
0,-354,15681,511,573,-95
0,-354,15655,511,568,-87
0,-379,15904,256,571,-96
0,-385,15638,511,575,-89
0,-377,15892,256,569,-86
0,-354,15910,256,557,-89
0,-339,15888,256,553,-98
0,-346,15884,256,565,-99
0,-360,15888,256,565,-93
0,-352,15929,256,576,-98
0,-352,15675,511,590,-96
0,-337,15651,511,593,-88
0,-329,15655,511,581,-85
0,-329,15671,511,572,-96
0,-327,15639,511,569,-95
0,-326,15643,511,563,-101
0,-349,15657,511,565,-102
0,-353,15689,511,568,-95
0,-372,15685,511,573,-92
0,-374,15689,511,575,-94
0,-366,15693,511,561,-104
0,-374,15695,511,562,-107
0,-330,15693,511,568,-101
0,-323,15666,511,568,-95
0,-310,15664,511,569,-102
0,-313,15664,511,568,-102
0,-318,15666,511,571,-101
0,-323,15662,511,577,-96
0,-336,15638,511,582,-104
0,-330,15637,511,584,-106
0,-367,15635,511,579,-98
0,-366,15627,511,566,-102
0,-383,15619,511,558,-100
0,-373,15649,511,564,-98
0,-360,15676,511,565,-102
0,-347,15928,256,576,-91
0,-348,15922,256,579,-82
0,-352,15924,256,569,-86
0,-357,15928,256,572,-88
0,-364,15931,256,577,-93
0,-363,15915,256,580,-96
0,-360,15928,256,585,-89
0,-353,15912,256,590,-93
0,-357,15915,256,585,-100
0,-363,15927,256,581,-92
0,-364,15667,511,579,-91
0,-360,15669,511,576,-95
0,-368,15651,511,563,-102
0,-367,15662,511,566,-99
0,-369,15651,511,573,-100
0,-359,15655,511,574,-96
0,-344,15663,511,572,-98
0,-361,15687,511,570,-97
0,-388,15673,511,573,-90
0,-390,15681,511,570,-96
0,-378,15920,256,565,-96
0,-357,15652,511,574,-101
0,-351,15668,511,580,-102
0,-362,15924,256,573,-103
0,-352,15675,511,573,-96
0,-357,15929,256,578,-107
0,-361,15944,256,582,-113
0,-336,15668,511,580,-105
0,-343,15928,256,576,-88
0,-327,15655,511,574,-93
0,-328,15637,511,572,-93
0,-341,15635,511,570,-88
0,-339,15905,256,565,-92
0,-344,15904,256,569,-95
0,-351,15681,511,569,-86
0,-347,15666,511,566,-97
0,-338,15652,511,562,-90
0,-346,15658,511,575,-85
0,-336,15653,511,587,-88
0,-340,15672,511,584,-96
0,-340,15656,511,586,-95
0,-366,15647,511,589,-105
0,-355,15646,511,580,-107
0,-373,15644,511,573,-107
0,-359,15638,511,573,-101
0,-378,15902,256,574,-106
0,-380,15653,511,590,-100
0,-387,15659,511,592,-93
0,-368,15668,511,577,-90
0,-364,15693,511,570,-93
0,-379,15674,511,575,-95
0,-366,15681,511,574,-100
0,-385,15671,511,572,-102
255,-374,15644,511,580,-103
255,-372,15654,511,567,-99
0,-363,15923,256,564,-106
0,-360,15690,511,579,-114
0,-350,15690,511,582,-114
0,-346,15671,511,574,-104
0,-368,15924,256,576,-95
0,-363,15660,511,575,-97
0,-362,15654,511,565,-90
0,-349,15677,511,562,-96
0,-354,15678,511,566,-93
0,-372,15653,511,575,-86
0,-357,15913,256,574,-80
0,-364,15916,256,573,-79
0,-349,15920,256,568,-86
0,-358,15915,256,567,-89
0,-344,15663,511,581,-85
0,-334,15659,511,587,-91
0,-325,15662,511,584,-93
0,-346,15669,511,573,-94
0,-350,15657,511,575,-99
0,-365,15670,511,580,-100
0,-356,15920,256,579,-106
0,-338,15641,511,585,-101
0,-350,15643,511,580,-97
0,-340,15652,511,575,-104
0,-353,15910,256,575,-107
0,-348,15663,511,575,-92
0,-340,15650,511,570,-102
0,-351,15641,511,572,-98
0,-366,15633,511,577,-92
0,-373,15646,511,577,-100
0,-378,15643,511,573,-88
0,-372,15633,511,567,-92
0,-357,15641,511,562,-95
0,-374,15904,256,563,-95
0,-351,15911,256,570,-89
0,-356,15908,256,570,-84
0,-341,15894,256,568,-82
0,-332,15645,511,585,-86
0,-344,15899,256,590,-92
0,-348,15902,256,580,-97
0,-355,15917,256,583,-91
0,-364,15900,256,583,-103
0,-360,15639,511,585,-97
0,-367,15643,511,580,-96
0,-347,15909,256,573,-102
0,-336,15653,511,571,-102
0,-358,15661,511,581,-102
0,-349,15645,511,577,-106
0,-360,15646,511,573,-108
0,-374,15632,511,582,-102
0,-358,15630,511,575,-102
0,-366,15659,511,574,-97
0,-354,15676,511,584,-95
0,-328,15681,511,580,-94
0,-349,15668,511,580,-98
0,-347,15677,511,583,-100
0,-340,15682,511,581,-99
0,-317,15679,511,577,-97
0,-337,15655,511,574,-99
0,-364,15657,511,581,-97
0,-347,15649,511,575,-100
0,-364,15641,511,575,-96
0,-367,15910,256,572,-87
0,-360,15906,256,572,-94
0,-383,15650,511,573,-97
0,-385,15920,256,575,-98
0,-367,15655,511,568,-94
0,-348,15670,511,578,-90
0,-353,15663,511,581,-90
0,-364,15651,511,579,-92
0,-381,15895,256,572,-92
0,-375,15896,256,577,-101
0,-365,15680,511,581,-98
0,-376,15674,511,573,-97
0,-378,15921,256,569,-95
0,-371,15913,256,573,-96
0,-375,15913,256,578,-97
0,-376,15924,256,579,-94
0,-361,15925,256,580,-91
0,-378,15924,256,579,-93
0,-356,15932,256,584,-90
0,-343,15679,511,592,-90
0,-334,15665,511,586,-94
0,-347,15921,256,579,-94
0,-369,15929,256,574,-100
0,-351,15941,256,570,-93
0,-355,15671,511,570,-97
0,-343,15664,511,570,-96
0,-336,15691,511,573,-86
0,-351,15949,256,581,-82
0,-320,15948,256,574,-89
0,-326,15947,256,584,-102
0,-339,15929,256,586,-95
0,-338,15918,256,584,-104
0,-362,15926,256,588,-105
0,-400,15927,256,590,-100
0,-354,15909,256,585,-97
0,-364,15659,511,586,-102
0,-360,15652,511,582,-103
0,-366,15639,511,576,-98
0,-370,15911,256,577,-98
0,-350,15888,256,576,-92
0,-360,15646,511,574,-95
0,-340,15658,511,572,-98
0,-334,15671,511,580,-98
0,-348,15938,256,588,-98
0,-345,15935,256,581,-105
0,-339,15931,256,580,-101
0,-351,15669,511,587,-100
0,-371,15651,511,583,-101
0,-361,15654,511,575,-103
0,-346,15908,256,580,-106
0,-355,15932,256,588,-108
0,-346,15913,256,590,-98
0,-344,15932,256,591,-108
0,-322,15927,256,578,-109
0,-340,15902,256,577,-100
0,-346,15903,256,584,-91
0,-348,15901,256,576,-88
0,-340,15639,511,575,-93
0,-335,15662,511,570,-101
0,-347,15927,256,565,-101
0,-350,15907,256,572,-91
0,-356,15913,256,573,-101
0,-374,15681,511,572,-99
0,-364,15668,511,571,-98
0,-367,15648,511,576,-95
0,-371,15651,511,578,-89
0,-361,15657,511,569,-88
0,-339,15668,511,571,-88
0,-349,15673,511,570,-90
0,-328,15668,511,566,-106
0,-304,15647,511,579,-103
0,-320,15634,511,585,-97
0,-353,15662,511,579,-98
0,-357,15657,511,576,-104
0,-365,15653,511,574,-96
0,-362,15914,256,578,-95
0,-346,15679,511,589,-97
0,-363,15673,511,587,-90
0,-364,15665,511,585,-105
0,-350,15646,511,575,-112
0,-371,15650,511,579,-116
0,-367,15639,511,581,-109
0,-359,15656,511,570,-108
0,-362,15653,511,573,-99
0,-344,15653,511,585,-86
0,-342,15643,511,587,-84
0,-343,15659,511,582,-93
0,-349,15905,256,581,-95
0,-343,15915,256,579,-85
0,-347,15931,256,569,-95
0,-349,15927,256,582,-99
0,-344,15659,511,583,-97
0,-339,15643,511,577,-97
0,-333,15666,511,574,-102
0,-347,15890,256,582,-97
0,-343,15906,256,578,-95
0,-337,15910,256,579,-101
0,-356,15933,256,585,-103
0,-362,15914,256,582,-99
0,-365,15668,511,580,-95
0,-343,15677,511,585,-90
0,-343,15916,256,589,-91
0,-353,15919,256,579,-90
0,-345,15909,256,574,-84
0,-336,15645,511,567,-88
0,-336,15650,511,570,-103
0,-357,15633,511,575,-99
0,-358,15631,511,563,-98
0,-383,15635,511,564,-91
0,-370,15656,511,564,-94
0,-340,15645,511,566,-91
0,-339,15905,256,566,-92
0,-336,15642,511,564,-98
0,-341,15640,511,573,-85
0,-360,15667,511,570,-89
0,-369,15664,511,570,-93
0,-367,15921,256,563,-100
0,-370,15924,256,566,-95
0,-409,15908,256,569,-95
0,-364,15904,256,572,-103
0,-348,15641,511,565,-103
0,-331,15904,256,571,-100
0,-322,15657,511,571,-99
0,-335,15897,256,572,-97
0,-342,15923,256,577,-101
0,-361,15664,511,571,-103
0,-374,15673,511,570,-105
0,-381,15657,511,567,-106
0,-352,15924,256,575,-92
0,-350,15665,511,584,-88
0,-365,15646,511,585,-88
0,-361,15676,511,578,-92
0,-340,15678,511,568,-87
0,-354,15660,511,579,-93
0,-360,15675,511,587,-89
0,-377,15639,511,578,-91
0,-355,15649,511,583,-93
0,-368,15649,511,586,-103
0,-355,15676,511,582,-104
0,-342,15671,511,584,-104
0,-352,15925,256,574,-104
0,-362,15910,256,569,-106
0,-331,15917,256,576,-109
0,-337,15929,256,579,-106
0,-363,15923,256,578,-100
0,-393,15921,256,582,-101
0,-387,15651,511,577,-100
0,-342,15654,511,575,-110
0,-341,15676,511,575,-114
0,-333,15679,511,573,-107
0,-343,15659,511,569,-97
0,-342,15677,511,567,-91
0,-346,15664,511,571,-82
0,-334,15932,256,571,-85
0,-346,15927,256,568,-93
0,-349,15932,256,565,-89
0,-369,15655,511,571,-82
0,-353,15897,256,566,-101
0,-322,15893,256,563,-104
0,-328,15657,511,560,-106
0,-362,15642,511,565,-104
0,-364,15653,511,562,-96
0,-362,15666,511,560,-81
0,-332,15918,256,566,-84
0,-342,15919,256,570,-90
0,-340,15653,511,569,-89
0,-339,15894,256,576,-97
0,-338,15647,511,579,-95
0,-333,15661,511,579,-94
0,-330,15679,511,580,-108
0,-352,15660,511,582,-101
0,-348,15668,511,585,-102
0,-361,15642,511,579,-102
0,-366,15648,511,581,-101
0,-360,15650,511,584,-96
0,-345,15668,511,581,-94
0,-336,15908,256,581,-84
0,-356,15920,256,582,-83
0,-381,15946,256,580,-92
0,-380,15672,511,574,-90
0,-354,15653,511,574,-90
0,-354,15629,511,573,-91
0,-354,15655,511,576,-91
0,-372,15655,511,578,-91
0,-376,15918,256,579,-92
0,-359,15655,511,573,-95
0,-334,15650,511,569,-88
0,-334,15894,256,567,-96
0,-337,15904,256,568,-101
0,-339,15897,256,581,-99
0,-342,15897,256,580,-98
0,-343,15674,511,572,-98
0,-347,15918,256,574,-100
0,-358,15913,256,586,-102
0,-365,15893,256,582,-103
0,-345,15891,256,568,-108
0,-340,15907,256,572,-105
0,-339,15895,256,568,-96
0,-362,15880,256,561,-97
0,-350,15626,511,558,-98
0,-333,15902,256,563,-95
0,-330,15896,256,566,-95
0,-330,15645,511,571,-91
0,-335,15647,511,570,-85
0,-354,15656,511,573,-88
0,-364,15665,511,572,-99
0,-366,15659,511,573,-105
0,-369,15627,511,573,-110
0,-368,15641,511,571,-100
255,-368,15632,511,574,-99
0,-383,15921,256,575,-85
0,-379,15920,256,580,-87
0,-386,15908,256,584,-93
0,-365,15903,256,587,-87
0,-366,15891,256,573,-82
0,-363,15633,511,565,-92
0,-361,15647,511,571,-101
0,-344,15638,511,574,-104
0,-347,15651,511,573,-105
0,-349,15670,511,568,-104
0,-347,15660,511,567,-96
0,-340,15929,256,568,-91
0,-329,15676,511,566,-101
0,-344,15672,511,567,-102
0,-370,15665,511,575,-100
0,-377,15657,511,575,-86
0,-376,15674,511,569,-87
0,-367,15673,511,567,-101
0,-354,15675,511,568,-100
0,-360,15685,511,570,-101
0,-364,15682,511,574,-107
0,-350,15910,256,575,-111
0,-360,15629,511,576,-102
0,-367,15644,511,576,-101
0,-383,15685,511,587,-98
0,-392,15674,511,574,-98
0,-373,15664,511,573,-96
0,-359,15933,256,581,-94
0,-363,15679,511,582,-93
0,-359,15664,511,587,-105
0,-355,15669,511,582,-99
0,-329,15677,511,581,-93
0,-345,15673,511,587,-102
0,-349,15658,511,592,-109
0,-360,15664,511,591,-107
0,-348,15926,256,582,-97
0,-352,15657,511,585,-93
0,-362,15679,511,584,-96
0,-394,15669,511,578,-92
0,-369,15650,511,576,-107
0,-355,15656,511,573,-111
0,-353,15675,511,572,-103
0,-376,15671,511,578,-90
0,-368,15659,511,583,-98
0,-338,15647,511,586,-101
0,-360,15657,511,581,-95
0,-378,15655,511,574,-89
0,-353,15912,256,575,-87
0,-357,15668,511,576,-108
0,-361,15920,256,571,-92
0,-360,15652,511,569,-82
0,-360,15674,511,564,-93
0,-352,15661,511,569,-97
0,-345,15929,256,573,-84
255,-350,15929,256,577,-82
0,-351,15678,511,583,-83
0,-342,15666,511,574,-87
0,-333,15656,511,569,-92
0,-327,15665,511,573,-85
0,-360,15931,256,579,-96
0,-362,15940,256,586,-95
0,-346,15673,511,582,-86
0,-341,15682,511,584,-82
0,-355,15651,511,582,-86
0,-368,15649,511,581,-88
0,-365,15653,511,573,-91
0,-355,15657,511,570,-86
0,-341,15646,511,574,-84
0,-335,15643,511,574,-87
0,-349,15640,511,578,-90
0,-340,15651,511,575,-96
0,-352,15917,256,577,-106
0,-364,15935,256,570,-105
0,-333,15930,256,580,-106
0,-321,15907,256,583,-109
0,-338,15672,511,576,-105
0,-375,15686,511,570,-111
0,-390,15955,256,577,-108
0,-367,15934,256,575,-93
0,-375,15664,511,570,-94
0,-388,15646,511,578,-104
0,-366,15642,511,582,-100
0,-370,15649,511,575,-100
0,-382,15665,511,566,-105
0,-363,15685,511,565,-100
0,-351,15684,511,568,-90
0,-351,15941,256,576,-99
0,-379,15940,256,573,-99
0,-386,15925,256,569,-94
0,-399,15652,511,578,-89
0,-378,15657,511,583,-99
0,-363,15662,511,574,-101
0,-363,15667,511,571,-102
0,-370,15673,511,573,-99
0,-362,15662,511,573,-99
0,-350,15671,511,567,-99
0,-346,15657,511,566,-98
0,-353,15661,511,570,-99
0,-375,15670,511,578,-91
0,-366,15663,511,581,-98
0,-369,15667,511,582,-95
0,-362,15680,511,580,-95
0,-343,15659,511,577,-96
0,-355,15673,511,581,-88
0,-359,15685,511,576,-97
0,-380,15666,511,580,-91
0,-378,15653,511,583,-90
0,-367,15649,511,581,-91
0,-362,15623,511,589,-94
0,-367,15621,511,589,-98
0,-387,15634,511,582,-97
0,-381,15647,511,578,-101
0,-373,15636,511,571,-97
0,-354,15625,511,574,-96
0,-345,15636,511,574,-97
0,-354,15898,256,569,-100
0,-375,15642,511,561,-96
0,-365,15910,256,561,-95
0,-341,15674,511,573,-91
0,-335,15648,511,566,-95
0,-354,15906,256,576,-106
0,-344,15908,256,582,-109
0,-346,15925,256,580,-97
0,-355,15921,256,575,-97
0,-338,15931,256,573,-88
0,-341,15924,256,576,-88
0,-337,15928,256,575,-92
0,-347,15655,511,568,-94
0,-359,15932,256,566,-98
0,-366,15926,256,577,-111
0,-371,15921,256,578,-111
0,-363,15932,256,579,-107
0,-348,15934,256,574,-106
0,-348,15913,256,572,-107
0,-344,15898,256,577,-116
0,-364,15908,256,578,-114
0,-360,15910,256,574,-103
0,-351,15925,256,579,-104
0,-372,15913,256,587,-105
0,-360,15665,511,588,-106
0,-364,15928,256,581,-99
0,-360,15649,511,577,-96
0,-369,15918,256,571,-92
0,-363,15909,256,572,-104
0,-354,15927,256,578,-101
0,-349,15919,256,582,-94
0,-374,15937,256,588,-85
0,-371,15924,256,590,-81
0,-381,15937,256,580,-86
0,-372,15949,256,579,-99
0,-354,15953,256,590,-99
0,-348,15918,256,582,-99
0,-356,15650,511,585,-92
0,-363,15910,256,585,-92
0,-359,15653,511,581,-91
0,-354,15693,511,583,-95
0,-345,15933,256,581,-104
0,-328,15929,256,586,-102
0,-351,15658,511,588,-101
0,-360,15904,256,583,-102
0,-363,15915,256,581,-91
0,-359,15927,256,579,-101
0,-339,15655,511,573,-112
0,-361,15678,511,575,-115
0,-355,15708,511,576,-105
0,-353,15697,511,573,-97
0,-356,15664,511,573,-106
0,-351,15931,256,569,-110
0,-349,15662,511,568,-106
0,-335,15646,511,575,-104
0,-318,15904,256,592,-109
0,-312,15902,256,584,-100
0,-328,15899,256,592,-100
0,-335,15647,511,585,-106
0,-359,15655,511,579,-104
0,-380,15668,511,586,-102
0,-364,15683,511,577,-101
0,-363,15921,256,570,-94
0,-375,15675,511,572,-89
0,-357,15695,511,576,-84
0,-366,15697,511,573,-93
0,-358,15932,256,568,-97
0,-376,15664,511,570,-103
0,-358,15674,511,579,-102
0,-355,15700,511,581,-98
0,-374,15697,511,581,-97
0,-348,15671,511,578,-100
0,-338,15679,511,580,-97
0,-308,15692,511,576,-101
0,-327,15668,511,568,-102
0,-352,15894,256,571,-97
0,-360,15897,256,574,-100
0,-359,15649,511,577,-101
0,-353,15674,511,579,-102
0,-370,15696,511,572,-99
0,-354,15679,511,573,-97
0,-354,15909,256,579,-109
0,-370,15628,511,576,-105
0,-347,15883,256,572,-97
0,-627,16127,256,572,-89
0,-361,15888,256,578,-88
0,-347,15905,256,578,-86
0,-346,15921,256,578,-96
0,-353,15665,511,579,-103
0,-376,15669,511,582,-105
0,-380,15679,511,579,-101
0,-362,15934,256,581,-104
0,-356,15922,256,581,-101
0,-329,15929,256,584,-97
0,-347,15678,511,578,-99
0,-368,15680,511,575,-88
0,-364,15671,511,576,-81
0,-364,15674,511,573,-80
0,-371,15683,511,568,-82
0,-367,15671,511,564,-85
0,-378,15662,511,566,-86
0,-399,15652,511,573,-89
0,-377,15647,511,577,-92
0,-350,15634,511,571,-85
0,-373,15896,256,576,-87
0,-365,15902,256,574,-92
0,-365,15658,511,568,-90
0,-353,15668,511,580,-88
0,-356,15916,256,576,-92
0,-349,15643,511,564,-95
0,-353,15926,256,568,-94
0,-352,15928,256,576,-91
0,-363,15669,511,573,-100
0,-378,15643,511,576,-109
0,-363,15919,256,581,-105
0,-342,15653,511,577,-96
0,-334,15666,511,571,-105
0,-336,15657,511,577,-103
0,-321,15677,511,575,-105
0,-336,15662,511,576,-94
0,-323,15657,511,574,-94
0,-320,15668,511,567,-94
0,-353,15667,511,565,-93
0,-357,15910,256,569,-99
0,-361,15656,511,572,-98
0,-357,15939,256,584,-88
0,-377,15957,256,578,-89
0,-391,15916,256,580,-94
0,-367,15670,511,568,-105
0,-373,15662,511,571,-101
0,-345,15639,511,571,-98
0,-340,15649,511,576,-106
0,-330,15660,511,584,-98
0,-347,15908,256,573,-103
0,-354,15899,256,571,-104
0,-369,15659,511,570,-100
0,-378,15674,511,577,-100
0,-379,15676,511,567,-102
0,-378,15658,511,568,-101
0,-369,15679,511,573,-95
0,-356,15671,511,573,-94
0,-355,15663,511,576,-98
0,-369,15675,511,580,-108
0,-343,15679,511,581,-103
0,-358,15681,511,579,-103
0,-348,15694,511,577,-102
0,-362,15676,511,569,-100
0,-372,15681,511,564,-99
0,-369,15685,511,563,-94
0,-353,15662,511,571,-94
0,-350,15642,511,578,-98
0,-367,15659,511,576,-104
0,-378,15668,511,585,-101
0,-360,15672,511,581,-101
0,-353,15657,511,576,-96
0,-365,15913,256,575,-97
0,-370,15671,511,576,-92
0,-368,15674,511,570,-92
0,-355,15674,511,570,-97
0,-339,15679,511,574,-88
0,-324,15676,511,576,-87
0,-347,15664,511,565,-94
0,-362,15671,511,561,-98
0,-366,15935,256,567,-99
0,-354,15920,256,565,-95
0,-357,15654,511,564,-90
0,-346,15655,511,560,-92
0,-362,15658,511,564,-88
0,-341,15663,511,569,-84
0,-337,15918,256,570,-89
0,-352,15895,256,561,-104
0,-347,15926,256,576,-102
0,-373,15670,511,576,-97
0,-377,15673,511,574,-98
0,-389,15675,511,574,-94
0,-369,15669,511,570,-102
0,-368,15924,256,569,-107
0,-368,15670,511,571,-107
0,-362,15679,511,574,-103
0,-348,15658,511,571,-100
0,-331,15672,511,577,-98
0,-326,15679,511,570,-104
0,-342,15946,256,567,-109
0,-359,15680,511,564,-103
0,-366,15930,256,575,-103
0,-355,15674,511,579,-97
0,-360,15919,256,573,-96
0,-382,15903,256,567,-98
0,-377,15659,511,575,-97
0,-353,15681,511,573,-96
0,-344,15668,511,569,-90
0,-352,15662,511,572,-100
0,-351,15662,511,568,-92
0,-333,15948,256,558,-94
0,-347,15943,256,572,-102
0,-370,15700,511,576,-108
0,-389,15947,256,579,-97
0,-371,15693,511,583,-102
0,-357,15670,511,578,-101
0,-362,15922,256,574,-102
0,-377,15930,256,572,-95
0,-377,15672,511,566,-99
0,-360,15674,511,567,-100
0,-359,15662,511,567,-94
0,-366,15658,511,563,-93
0,-359,15655,511,568,-88
0,-357,15647,511,574,-90
0,-358,15922,256,579,-98
0,-351,15911,256,581,-99
0,-375,15647,511,573,-91
0,-355,15666,511,575,-85
0,-353,15916,256,581,-85
0,-328,15926,256,577,-89
0,-343,15663,511,576,-91
0,-342,15664,511,579,-90
0,-360,15930,256,583,-89
0,-372,15674,511,570,-87
0,-368,15683,511,578,-76
0,-350,15680,511,574,-83
0,-357,15669,511,572,-88
0,-348,15679,511,574,-95
0,-327,15687,511,575,-102
0,-345,15703,511,573,-100
0,-358,15688,511,571,-96
0,-353,15672,511,567,-92
0,-368,15644,511,567,-98
0,-383,15658,511,565,-89
0,-371,15669,511,569,-88
0,-374,15688,511,561,-99
0,-366,15661,511,570,-96
0,-341,15644,511,572,-88
0,-366,15668,511,573,-88
0,-369,15670,511,570,-95
0,-357,15662,511,564,-97
0,-348,15916,256,566,-97
0,-358,15907,256,574,-99
0,-348,15912,256,574,-95
0,-365,15917,256,566,-97
0,-357,15926,256,567,-102
0,-354,15912,256,567,-98
0,-363,15659,511,575,-95
0,-370,15656,511,565,-91
0,-367,15914,256,566,-89
0,-364,15664,511,563,-93
0,-352,15659,511,570,-94
0,-348,15650,511,574,-96
0,-364,15643,511,581,-96
0,-352,15659,511,585,-88
0,-333,15658,511,581,-98
0,-350,15929,256,577,-102
0,-338,15681,511,573,-108
0,-349,15682,511,566,-101
0,-338,15687,511,575,-95
0,-339,15695,511,576,-97
0,-358,15691,511,574,-87
0,-389,15664,511,567,-85
0,-378,15673,511,568,-85
0,-379,15896,256,571,-88
0,-364,15896,256,578,-97
0,-377,15915,256,570,-103
0,-358,15914,256,568,-106
0,-364,15651,511,564,-104
0,-359,15666,511,561,-110
0,-370,15695,511,570,-113
0,-377,15688,511,582,-101
0,-363,15651,511,585,-106
0,-353,15661,511,575,-107
0,-341,15923,256,568,-99
0,-344,15916,256,560,-100
0,-359,15920,256,561,-100
0,-367,15675,511,568,-96
0,-374,15658,511,576,-97
0,-352,15933,256,578,-102
0,-361,15914,256,576,-101
0,-360,15916,256,567,-102
0,-342,15931,256,568,-95
0,-365,15936,256,577,-97
0,-354,15937,256,578,-98
0,-358,15910,256,583,-102
0,-343,15649,511,577,-99
0,-346,15641,511,568,-91
0,-353,15642,511,575,-84
0,-343,15643,511,573,-84
0,-347,15904,256,571,-81
0,-347,15668,511,574,-82
0,-356,15916,256,575,-96
0,-350,15663,511,573,-96
0,-334,15653,511,581,-98
0,-342,15661,511,576,-108
0,-357,15659,511,582,-105
0,-352,15654,511,574,-92
0,-321,15684,511,568,-98
0,-342,15673,511,560,-96
0,-345,15687,511,568,-84
0,-343,15936,256,575,-87
0,-320,15931,256,578,-89
0,-323,15912,256,575,-97
0,-344,15658,511,577,-102
0,-347,15635,511,583,-114
0,-354,15659,511,589,-100
0,-355,15919,256,578,-109
0,-333,15935,256,569,-110
0,-335,15934,256,576,-111
0,-328,15686,511,579,-101
0,-333,15926,256,573,-91
0,-353,15917,256,563,-95
0,-330,15895,256,577,-94
0,-587,16124,256,579,-104
0,-352,15621,511,576,-112
0,-344,15897,256,578,-108
0,-343,15636,511,577,-102
0,-350,15638,511,567,-96
0,-380,15658,511,569,-97
0,-370,15670,511,574,-104
0,-384,15646,511,578,-95
0,-366,15652,511,583,-95
0,-374,15638,511,586,-94
0,-356,15642,511,582,-103
0,-360,15645,511,577,-100
0,-335,15680,511,570,-94
0,-337,15667,511,570,-94
0,-357,15644,511,577,-96
0,-358,15644,511,582,-106
0,-343,15889,256,586,-108
0,-344,15635,511,577,-103
0,-334,15643,511,575,-97
0,-359,15657,511,575,-94
0,-358,15662,511,579,-102
0,-340,15909,256,583,-100
0,-381,15637,511,575,-101
0,-373,15626,511,576,-102
0,-350,15638,511,577,-89
0,-361,15632,511,580,-94
0,-380,15637,511,580,-93
0,-376,15635,511,579,-86
0,-357,15654,511,578,-90
0,-350,15911,256,577,-85
0,-337,15665,511,583,-92
0,-340,15669,511,577,-101
0,-348,15907,256,572,-94
0,-367,15643,511,569,-79
0,-364,15637,511,566,-90
0,-369,15912,256,576,-104
0,-382,15931,256,581,-105
0,-380,15925,256,570,-107
0,-359,15932,256,580,-97
0,-344,15932,256,578,-93
0,-332,15917,256,575,-106
0,-336,15662,511,564,-109
0,-336,15672,511,564,-102
0,-335,15681,511,577,-97
0,-338,15943,256,574,-103
0,-337,15933,256,567,-105
0,-347,15915,256,572,-102
0,-354,15663,511,582,-102
0,-355,15910,256,581,-105
0,-367,15919,256,579,-102
0,-359,15933,256,575,-100
0,-338,15928,256,577,-100
0,-359,15925,256,572,-104
0,-361,15932,256,579,-108
0,-384,15666,511,578,-104
0,-363,15936,256,579,-105
0,-348,15680,511,572,-107
0,-364,15687,511,570,-109
0,-359,15677,511,577,-106
0,-340,15672,511,577,-97
0,-332,15678,511,574,-111
0,-361,15680,511,581,-111
0,-367,15651,511,577,-102
0,-360,15903,256,578,-107
0,-346,15662,511,572,-109
0,-336,15673,511,569,-114
0,-356,15687,511,578,-108
0,-385,15678,511,573,-100
0,-357,15656,511,574,-104
0,-347,15902,256,584,-105
0,-346,15914,256,587,-103
0,-354,15915,256,575,-88
0,-337,15660,511,572,-88
0,-340,15681,511,578,-85
0,-336,15665,511,579,-84
0,-335,15672,511,577,-88
0,-326,15682,511,579,-93
0,-338,15951,256,583,-96
0,-348,15680,511,577,-96
0,-335,15674,511,575,-101
0,-331,15663,511,572,-96
0,-351,15658,511,579,-96
0,-365,15669,511,571,-104
0,-373,15660,511,572,-105
0,-352,15666,511,573,-103
0,-368,15651,511,576,-101
0,-350,15656,511,583,-92
0,-347,15916,256,581,-91
0,-362,15931,256,570,-99
0,-386,15938,256,580,-91
0,-392,15683,511,582,-89
0,-369,15944,256,579,-84
0,-361,15923,256,577,-85
0,-378,15662,511,573,-87
0,-373,15659,511,577,-95
0,-348,15643,511,577,-92
0,-344,15630,511,576,-93
0,-362,15898,256,579,-100
0,-349,15644,511,583,-112
0,-364,15649,511,583,-107
0,-354,15651,511,588,-96
0,-342,15666,511,585,-95
0,-334,15660,511,587,-93
0,-340,15645,511,589,-97
0,-335,15639,511,583,-100
0,-352,15641,511,574,-98
0,-373,15658,511,574,-107
0,-376,15681,511,572,-105
0,-369,15679,511,568,-97
0,-377,15686,511,574,-95
0,-372,15687,511,582,-92
0,-356,15661,511,582,-96
0,-375,15619,511,583,-98
0,-340,15637,511,578,-91
0,-349,15891,256,588,-80
0,-364,15910,256,580,-84
0,-358,15913,256,577,-83
0,-380,15921,256,569,-96
0,-382,15650,511,569,-98
0,-354,15625,511,576,-92
0,-324,15637,511,578,-102
0,-323,15656,511,581,-102
0,-331,15661,511,584,-89
0,-360,15654,511,580,-94
0,-346,15670,511,576,-87
0,-350,15660,511,571,-91
0,-334,15646,511,576,-93
0,-332,15654,511,573,-94
0,-357,15666,511,575,-105
0,-376,15664,511,578,-91
0,-372,15642,511,574,-99
0,-395,15901,256,576,-108
0,-376,15644,511,578,-95
0,-379,15653,511,572,-93
0,-383,15657,511,565,-97
0,-364,15652,511,571,-93
0,-358,15653,511,575,-86
0,-352,15654,511,576,-84
0,-361,15671,511,582,-102
0,-355,15943,256,583,-104
0,-349,15937,256,587,-92
0,-342,15660,511,581,-96
0,-332,15654,511,581,-109
0,-334,15645,511,573,-103
0,-328,15643,511,572,-92
0,-339,15649,511,577,-87
0,-325,15653,511,573,-97
0,-359,15637,511,575,-88
0,-377,15917,256,577,-87
0,-378,15918,256,569,-97
0,-381,15893,256,573,-99
0,-365,15906,256,570,-108
0,-393,15893,256,573,-102
0,-381,15891,256,578,-95
0,-369,15644,511,569,-102
0,-372,15653,511,572,-99
0,-368,15669,511,565,-102
0,-360,15685,511,569,-106
0,-370,15668,511,566,-100
0,-371,15645,511,566,-98
0,-355,15624,511,570,-95
0,-371,15634,511,571,-96
0,-365,15902,256,576,-103
0,-358,15641,511,574,-103
0,-353,15903,256,568,-99
0,-368,15669,511,574,-89
0,-382,15665,511,578,-99
0,-381,15646,511,582,-105
0,-374,15627,511,583,-101
0,-370,15634,511,589,-98
0,-363,15659,511,580,-94
0,-351,15657,511,576,-92
0,-352,15658,511,574,-96
0,-373,15666,511,573,-97
0,-353,15679,511,566,-103
0,-367,15668,511,569,-115
0,-362,15666,511,576,-117
0,-352,15674,511,569,-108
0,-345,15658,511,572,-106
0,-335,15656,511,576,-107
0,-323,15661,511,585,-108
0,-326,15634,511,583,-113
0,-335,15630,511,568,-110
0,-344,15616,511,570,-108
0,-352,15886,256,573,-115
0,-357,15624,511,572,-116
0,-341,15912,256,578,-112
0,-357,15645,511,585,-111
0,-359,15629,511,589,-96
0,-354,15617,511,591,-91
0,-363,15876,256,591,-89
0,-362,15645,511,586,-95
0,-365,15654,511,585,-103
0,-355,15652,511,579,-99
0,-350,15662,511,575,-95
0,-344,15633,511,581,-90
0,-343,15624,511,584,-98
0,-364,15890,256,577,-99
0,-366,15904,256,573,-93
0,-344,15658,511,579,-100
0,-349,15646,511,578,-104
0,-376,15634,511,574,-97
0,-390,15640,511,575,-91
0,-363,15888,256,572,-85
0,-349,15895,256,580,-79
0,-364,15660,511,578,-82
0,-383,15653,511,582,-86
0,-390,15659,511,586,-79
0,-378,15684,511,573,-82
0,-373,15699,511,570,-80
0,-397,15691,511,568,-83
0,-388,15681,511,565,-87
0,-380,15913,256,569,-89
0,-351,15654,511,571,-84
0,-360,15907,256,569,-86
0,-362,15667,511,570,-88
0,-365,15665,511,569,-91
0,-387,15671,511,571,-96
0,-362,15681,511,575,-94
0,-338,15701,511,570,-98
0,-364,15689,511,569,-97
0,-358,15662,511,561,-101
0,-325,15653,511,566,-97
0,-360,15652,511,572,-93
0,-348,15693,511,572,-95
0,-339,15685,511,575,-89
0,-341,15677,511,573,-97
0,-358,15664,511,567,-106
0,-357,15664,511,572,-99
0,-353,15671,511,575,-98
0,-341,15680,511,578,-100
0,-348,15946,256,578,-99
0,-360,15936,256,569,-100
0,-384,15928,256,576,-92
0,-363,15697,511,578,-89
0,-348,15707,511,579,-97
0,-363,15678,511,580,-102
0,-388,15675,511,590,-100
0,-384,15675,511,579,-103
0,-365,15669,511,586,-95
255,-377,15663,511,587,-94
0,-367,15652,511,574,-103
0,-379,15685,511,570,-99
0,-358,15678,511,571,-94
0,-340,15675,511,570,-89
0,-348,15674,511,564,-98
0,-349,15645,511,570,-106
0,-350,15673,511,577,-101
0,-344,15691,511,582,-94
0,-362,15657,511,591,-96
0,-387,15659,511,583,-96
0,-374,15658,511,585,-93
0,-378,15676,511,583,-92
0,-380,15676,511,579,-98
0,-361,15656,511,577,-101
0,-351,15645,511,571,-99
0,-360,15629,511,573,-102
0,-347,15651,511,584,-104
0,-345,15637,511,592,-94
0,-379,15637,511,593,-93
0,-388,15666,511,581,-105
0,-391,15677,511,582,-99
0,-368,15656,511,586,-93
0,-363,15640,511,587,-99
0,-359,15655,511,578,-105
0,-367,15648,511,574,-107
0,-378,15680,511,571,-110
0,-373,15673,511,572,-113
0,-394,15648,511,577,-113
0,-381,15890,256,578,-100
0,-389,15905,256,570,-94
0,-363,15643,511,568,-97
0,-340,15664,511,571,-92
0,-369,15664,511,573,-85
0,-363,15665,511,571,-86
0,-372,15631,511,574,-92
0,-374,15897,256,577,-101
0,-393,15910,256,569,-98
0,-376,15899,256,574,-92
0,-385,15900,256,578,-93
0,-379,15902,256,578,-99
0,-391,15893,256,573,-95
0,-384,15874,256,579,-105
0,-376,15651,511,581,-109
0,-358,15665,511,590,-110
0,-354,15662,511,588,-105
0,-331,15902,256,577,-105
0,-347,15641,511,570,-95
0,-326,15643,511,574,-83
0,-348,15659,511,568,-87
0,-367,15917,256,561,-94
0,-357,15915,256,565,-108
0,-345,15652,511,574,-100
0,-341,15915,256,582,-94
0,-339,15932,256,574,-93
0,-325,15928,256,573,-87
0,-330,15683,511,571,-88
0,-357,15673,511,569,-98
0,-394,15662,511,573,-108
0,-394,15674,511,572,-104
0,-379,15939,256,574,-105
0,-371,15923,256,578,-104
0,-362,15657,511,572,-104
0,-362,15674,511,570,-102
0,-375,15674,511,577,-100
0,-372,15684,511,578,-109
0,-329,15669,511,569,-104
0,-316,15669,511,573,-94
0,-313,15654,511,573,-98
0,-331,15657,511,577,-94
0,-365,15919,256,583,-100
0,-364,15891,256,583,-98
0,-355,15903,256,583,-99
0,-337,15916,256,586,-100
0,-339,15924,256,581,-92
0,-338,15689,511,578,-91
0,-350,15696,511,583,-86
0,-349,15673,511,573,-101
0,-336,15664,511,576,-107
0,-351,15665,511,582,-106
0,-360,15663,511,583,-105
0,-375,15921,256,576,-95
0,-374,15672,511,580,-89
0,-359,15649,511,579,-91
0,-350,15660,511,568,-92
0,-342,15669,511,573,-104
0,-372,15666,511,561,-107
0,-390,15676,511,558,-102
0,-397,15941,256,566,-102
0,-388,15922,256,569,-106
0,-376,15926,256,571,-102
0,-354,15665,511,569,-104
0,-349,15909,256,575,-98
0,-357,15894,256,568,-97
0,-330,15660,511,564,-104
0,-339,15676,511,566,-100
0,-346,15651,511,573,-94
0,-361,15914,256,569,-82
0,-363,15931,256,564,-74
0,-380,15677,511,566,-83
0,-385,15936,256,567,-97
0,-361,15669,511,576,-89
0,-346,15635,511,578,-86
0,-597,16118,256,582,-97
0,-356,15880,256,580,-94
0,-359,15906,256,581,-100
0,-321,15920,256,585,-100
0,-337,15678,511,577,-89
0,-360,15670,511,572,-86
0,-361,15678,511,573,-84
0,-348,15934,256,577,-88
0,-357,15925,256,580,-95
0,-330,15927,256,575,-97
0,-332,15917,256,571,-109
0,-344,15915,256,583,-109
0,-344,15659,511,590,-92
0,-333,15642,511,587,-83
0,-345,15640,511,576,-88
0,-348,15625,511,569,-83
0,-340,15631,511,572,-82
0,-353,15650,511,565,-93
0,-358,15655,511,569,-98
0,-358,15669,511,572,-89
0,-391,15664,511,568,-81
0,-382,15674,511,578,-89
0,-362,15675,511,579,-84
0,-358,15679,511,576,-83
0,-369,15663,511,577,-89
0,-364,15662,511,569,-92
0,-361,15678,511,573,-91
0,-349,15656,511,579,-92
0,-357,15667,511,579,-93
0,-342,15668,511,573,-99
0,-342,15679,511,571,-87
0,-342,15682,511,572,-93
0,-355,15667,511,566,-96
0,-361,15927,256,568,-94
0,-389,15943,256,578,-100
0,-380,15925,256,573,-104
0,-364,15915,256,575,-88
0,-341,15916,256,577,-91
0,-336,15916,256,579,-96
0,-339,15917,256,570,-97
0,-329,15895,256,565,-110
0,-352,15876,256,577,-105
0,-352,15655,511,584,-87
0,-339,15663,511,576,-81
0,-345,15666,511,572,-86
0,-340,15667,511,578,-90
0,-362,15660,511,570,-89
0,-356,15663,511,575,-89
0,-371,15666,511,578,-89
0,-360,15660,511,573,-87
0,-347,15651,511,564,-88
0,-362,15917,256,559,-89
0,-391,15674,511,564,-94
0,-362,15679,511,582,-108
0,-368,15666,511,582,-111
0,-356,15679,511,569,-113
0,-370,15939,256,576,-112
0,-407,15928,256,575,-104
0,-397,15920,256,575,-107
0,-404,15936,256,583,-103
0,-383,15931,256,585,-98
0,-402,15688,511,580,-98
0,-400,15669,511,581,-103
0,-359,15664,511,573,-102
0,-353,15666,511,570,-100
0,-365,15659,511,578,-94
0,-328,15661,511,583,-91
0,-322,15933,256,586,-90
0,-350,15652,511,579,-90
0,-366,15884,256,583,-103
0,-370,15641,511,581,-111
0,-381,15633,511,579,-113
0,-386,15920,256,584,-113
0,-361,15937,256,573,-105
0,-377,15935,256,566,-105
0,-359,15686,511,565,-92
0,-364,15692,511,566,-95
0,-378,15693,511,572,-91
0,-372,15694,511,569,-96
0,-380,15688,511,571,-95
0,-378,15681,511,576,-97
0,-378,15674,511,571,-105
0,-367,15654,511,566,-95
0,-369,15907,256,573,-93
0,-369,15666,511,576,-98
0,-350,15670,511,578,-104
0,-358,15679,511,575,-102
0,-371,15932,256,576,-100
0,-358,15681,511,574,-106
0,-360,15661,511,572,-106
0,-356,15674,511,574,-97
0,-360,15671,511,576,-92
0,-360,15918,256,573,-96
0,-369,15663,511,570,-95
0,-357,15645,511,578,-90
0,-344,15645,511,579,-96
0,-346,15901,256,576,-100
0,-363,15896,256,577,-102
0,-361,15919,256,583,-100
0,-378,15675,511,581,-104
0,-352,15653,511,581,-105
0,-346,15921,256,583,-98
0,-369,15667,511,579,-100
0,-384,15683,511,577,-116
0,-379,15920,256,579,-118
0,-355,15910,256,571,-99
0,-353,15910,256,578,-103
0,-342,15656,511,581,-101
0,-371,15658,511,578,-93
0,-367,15653,511,577,-108
0,-371,15644,511,574,-111
0,-373,15661,511,572,-109
0,-361,15669,511,572,-99
0,-356,15668,511,566,-98
0,-351,15683,511,574,-99
0,-361,15690,511,581,-93
0,-352,15677,511,571,-89
0,-355,15926,256,568,-91
0,-370,15683,511,579,-93
0,-364,15682,511,575,-92
0,-367,15665,511,577,-93
0,-358,15655,511,572,-93
0,-349,15910,256,570,-91
0,-359,15632,511,577,-90
0,-370,15643,511,579,-91
0,-358,15642,511,574,-99
0,-347,15645,511,571,-100
0,-342,15641,511,574,-99
0,-343,15917,256,578,-102
0,-366,15668,511,577,-97
0,-370,15665,511,566,-92
0,-351,15664,511,568,-90
0,-339,15655,511,583,-91
0,-376,15641,511,587,-97
0,-375,15662,511,579,-98
0,-368,15672,511,581,-99
0,-369,15655,511,572,-96
0,-328,15650,511,581,-95
0,-342,15656,511,579,-88
0,-341,15672,511,568,-90
0,-346,15682,511,571,-90
0,-335,15680,511,568,-84
0,-310,15658,511,567,-85
0,-330,15666,511,572,-92
0,-349,15926,256,577,-100
0,-350,15672,511,575,-98
0,-343,15662,511,561,-100
0,-376,15675,511,570,-98
0,-363,15664,511,576,-102
0,-366,15925,256,576,-104
0,-343,15647,511,576,-101
0,-379,15650,511,573,-104
0,-366,15673,511,570,-101
0,-365,15649,511,568,-95
0,-372,15640,511,581,-95
0,-353,15640,511,582,-89
0,-338,15657,511,578,-96
0,-343,15666,511,576,-95
0,-348,15921,256,573,-93
0,-334,15918,256,576,-91
0,-353,15681,511,585,-92
0,-375,15934,256,592,-93
0,-359,15928,256,583,-98
0,-323,15658,511,577,-98
0,-347,15655,511,577,-89
0,-354,15661,511,580,-91
0,-339,15655,511,581,-92
0,-340,15662,511,585,-92
0,-340,15647,511,586,-97
0,-350,15684,511,588,-102
0,-346,15681,511,584,-100
0,-350,15679,511,583,-106
0,-356,15677,511,580,-111
0,-338,15671,511,576,-102
0,-339,15680,511,570,-104
0,-346,15674,511,567,-102
0,-358,15692,511,569,-102
0,-355,15695,511,573,-91
0,-366,15936,256,579,-93
0,-375,15955,256,580,-98
0,-354,15709,511,569,-107
0,-334,15683,511,564,-103
0,-327,15926,256,564,-105
0,-341,15921,256,579,-96
0,-355,15921,256,573,-97
0,-364,15925,256,579,-98
0,-347,15671,511,584,-95
0,-347,15661,511,579,-92
0,-335,15641,511,578,-93
0,-342,15639,511,583,-100
0,-336,15658,511,589,-100
0,-330,15659,511,582,-98
0,-342,15674,511,574,-98
0,-321,15669,511,573,-95
0,-313,15916,256,575,-106
0,-325,15921,256,578,-103
0,-314,15655,511,584,-97
0,-342,15670,511,587,-104
0,-368,15930,256,580,-104
0,-390,15655,511,573,-106
0,-381,15912,256,579,-100
0,-381,15919,256,584,-99
0,-368,15649,511,578,-95
0,-383,15640,511,579,-99
0,-365,15659,511,574,-89
0,-380,15947,256,584,-98
0,-378,15945,256,589,-100
0,-379,15929,256,591,-98
0,-365,15666,511,587,-102
0,-365,15668,511,590,-100
0,-356,15658,511,586,-100
0,-365,15672,511,576,-96
0,-362,15690,511,583,-90
0,-373,15688,511,588,-86
0,-369,15702,511,586,-92
0,-365,15942,256,585,-86
0,-350,15912,256,581,-97
0,-326,15653,511,575,-106
0,-332,15665,511,572,-107
0,-340,15662,511,573,-98
0,-356,15668,511,577,-92
0,-373,15652,511,571,-89
0,-383,15641,511,565,-93
0,-393,15664,511,566,-93
0,-404,15681,511,564,-85
0,-378,15682,511,575,-98
0,-370,15670,511,570,-105
0,-351,15684,511,570,-108
0,-359,15666,511,570,-100
0,-377,15659,511,570,-96
0,-392,15648,511,577,-97
0,-388,15649,511,584,-98
0,-399,15650,511,592,-96
0,-405,15633,511,591,-94
0,-362,15645,511,583,-83
0,-349,15672,511,576,-88
0,-343,15661,511,584,-94
0,-341,15660,511,582,-83
0,-344,15650,511,580,-92
0,-357,15653,511,578,-91
0,-352,15891,256,574,-94
0,-342,15894,256,578,-94
0,-359,15660,511,581,-87
0,-383,15915,256,582,-104
0,-372,15913,256,581,-101
0,-364,15667,511,581,-97
0,-379,15672,511,576,-97
0,-366,15942,256,570,-102
0,-350,15924,256,573,-91
0,-350,15949,256,569,-92
0,-334,15928,256,571,-91
0,-330,15899,256,574,-92
0,-330,15888,256,577,-101
0,-351,15630,511,577,-104
0,-357,15634,511,576,-107
0,-349,15646,511,575,-95
0,-378,15676,511,573,-96
0,-373,15702,511,573,-101
0,-352,15696,511,573,-102
0,-342,15688,511,567,-98
0,-332,15672,511,561,-93
0,-334,15666,511,560,-95
0,-335,15660,511,569,-94
0,-351,15893,256,571,-106
0,-351,15901,256,569,-101
0,-339,15665,511,567,-103
0,-340,15946,256,572,-99
0,-359,15942,256,567,-102
0,-327,15648,511,571,-93
0,-356,15646,511,571,-86
0,-356,15675,511,574,-78
0,-360,15663,511,573,-93
0,-358,15667,511,575,-98
0,-367,15672,511,572,-98
0,-390,15662,511,569,-99
0,-386,15648,511,574,-101
0,-370,15913,256,573,-106
0,-322,15927,256,574,-102
0,-326,15665,511,570,-109
0,-334,15644,511,572,-102
0,-325,15672,511,573,-101
0,-338,15666,511,566,-96
0,-350,15690,511,568,-85
0,-357,15690,511,575,-99
0,-355,15659,511,579,-98
0,-331,15628,511,583,-95
0,-338,15648,511,582,-94
0,-359,15642,511,585,-96
0,-374,15673,511,584,-84
0,-370,15942,256,576,-83
0,-362,15933,256,571,-92
0,-360,15926,256,572,-93
0,-377,15935,256,569,-92
0,-362,15682,511,566,-87
0,-346,15652,511,574,-89
0,-339,15638,511,585,-95
0,-353,15655,511,584,-97
0,-344,15641,511,575,-95
0,-348,15620,511,571,-99
255,-362,15891,256,580,-93
0,-358,15899,256,574,-95
0,-350,15896,256,577,-89
0,-333,15887,256,576,-94
0,-354,15898,256,576,-100
0,-345,15879,256,576,-102
0,-360,15904,256,581,-102
0,-336,15663,511,582,-94
0,-329,15666,511,582,-90
0,-317,15662,511,577,-96
0,-339,15640,511,576,-90
0,-358,15649,511,580,-87
0,-354,15912,256,581,-89
0,-352,15929,256,584,-98
0,-333,15676,511,582,-85
0,-346,15654,511,579,-85
0,-343,15684,511,588,-90
0,-364,15683,511,572,-109
0,-371,15683,511,572,-111
0,-370,15682,511,576,-106
0,-372,15686,511,574,-102
0,-364,15657,511,575,-100
0,-348,15671,511,574,-100
0,-373,15669,511,575,-101
0,-393,15661,511,575,-97
0,-373,15645,511,578,-93
0,-352,15647,511,577,-91
0,-347,15656,511,567,-93
0,-353,15655,511,570,-96
0,-342,15624,511,579,-104
0,-351,15645,511,584,-100
0,-376,15661,511,580,-96
0,-368,15672,511,568,-98
0,-379,15663,511,564,-98
0,-372,15640,511,566,-99
0,-386,15642,511,570,-93
0,-377,15670,511,564,-91
0,-365,15673,511,554,-92
0,-374,15674,511,559,-93
0,-354,15686,511,572,-91
0,-358,15693,511,574,-91
0,-369,15659,511,579,-81
0,-339,15656,511,581,-85
0,-350,15664,511,578,-85
0,-365,15660,511,567,-90
0,-383,15656,511,571,-92
0,-389,15896,256,573,-95
0,-393,15649,511,573,-94
0,-385,15929,256,580,-90
0,-351,15926,256,579,-90
0,-358,15659,511,576,-95
0,-376,15658,511,578,-92
0,-354,15649,511,580,-88
0,-363,15640,511,573,-84
0,-353,15643,511,578,-91
0,-364,15907,256,580,-87
0,-369,15921,256,573,-94
0,-367,15943,256,577,-98
0,-378,15941,256,582,-98
0,-388,15916,256,575,-94
0,-386,15670,511,572,-88
0,-368,15674,511,569,-95
0,-365,15677,511,569,-99
0,-357,15660,511,577,-94
0,-351,15932,256,575,-85
0,-365,15932,256,578,-89
0,-387,15935,256,580,-87
0,-373,15674,511,583,-92
0,-365,15671,511,583,-92
0,-369,15952,256,577,-88
0,-366,15704,511,571,-90
0,-368,15938,256,576,-90
0,-380,15677,511,576,-103
0,-378,15672,511,568,-105
0,-359,15929,256,575,-100
0,-363,15917,256,570,-93
0,-358,15905,256,576,-92
0,-336,15898,256,583,-80
0,-332,15907,256,574,-84
0,-342,15656,511,568,-87
0,-347,15894,256,571,-88
0,-351,15653,511,574,-94
0,-364,15919,256,572,-98
0,-355,15672,511,567,-98
0,-365,15678,511,569,-99
0,-331,15680,511,570,-96
0,-342,15682,511,575,-91
0,-360,15680,511,571,-95
0,-338,15689,511,572,-99
0,-346,15691,511,579,-96
0,-372,15685,511,588,-97
0,-362,15681,511,582,-92
0,-369,15680,511,583,-98
0,-346,15685,511,576,-99
0,-377,15678,511,572,-98
0,-373,15680,511,580,-100
0,-370,15658,511,578,-98
0,-362,15656,511,582,-96
0,-359,15649,511,580,-94
0,-363,15646,511,574,-98
0,-376,15662,511,577,-90
0,-369,15647,511,577,-95
0,-369,15637,511,578,-97
0,-320,15631,511,569,-112
0,-333,15659,511,569,-113
0,-354,15653,511,568,-107
0,-342,15652,511,559,-104
0,-344,15651,511,564,-100
0,-345,15912,256,568,-98
0,-336,15930,256,568,-99
0,-348,15945,256,566,-99
0,-366,15931,256,568,-96
0,-373,15925,256,567,-100
0,-375,15662,511,572,-99
0,-392,15677,511,578,-100
0,-395,15918,256,579,-98
0,-377,15940,256,582,-98
0,-378,15919,256,581,-101
0,-384,15931,256,580,-97
0,-387,15948,256,585,-95
0,-377,15695,511,582,-96
0,-390,15658,511,576,-87
0,-384,15677,511,580,-86
0,-380,15682,511,578,-93
0,-362,15946,256,571,-96
0,-372,15946,256,568,-97
0,-363,15926,256,559,-93
0,-390,15923,256,558,-87
0,-388,15930,256,567,-95
0,-367,15914,256,573,-94
0,-377,15927,256,578,-85
0,-371,15920,256,579,-85
0,-387,15664,511,581,-82
0,-373,15678,511,579,-79
0,-361,15696,511,576,-86
0,-343,15696,511,587,-94
0,-350,15709,511,593,-93
0,-332,15943,256,586,-99
0,-321,15924,256,584,-99
0,-334,15660,511,580,-102
0,-337,15926,256,585,-93
0,-323,15658,511,580,-95
0,-320,15926,256,578,-102
0,-339,15921,256,579,-103
0,-344,15934,256,575,-104
0,-341,15944,256,573,-94
0,-345,15939,256,571,-99
0,-347,15928,256,574,-90
0,-349,15929,256,574,-82
0,-349,15649,511,578,-87
0,-346,15641,511,583,-101
0,-353,15657,511,576,-103
0,-371,15649,511,573,-98
0,-352,15643,511,570,-102
0,-344,15651,511,567,-103
0,-364,15662,511,573,-93
0,-358,15666,511,569,-90
0,-351,15644,511,566,-96
0,-344,15639,511,569,-99
0,-351,15646,511,571,-102
0,-342,15652,511,570,-100
0,-354,15913,256,581,-100
0,-360,15683,511,587,-95
0,-347,15919,256,590,-96
0,-332,15646,511,586,-92
0,-330,15662,511,580,-85
0,-351,15654,511,581,-86
0,-347,15931,256,580,-86
0,-348,15680,511,579,-75
0,-344,15676,511,577,-83
0,-327,15659,511,583,-83
0,-313,15659,511,586,-80
0,-335,15661,511,578,-81
0,-370,15678,511,571,-87
0,-374,15933,256,575,-86
0,-348,15665,511,569,-92
0,-344,15651,511,564,-91
0,-362,15650,511,569,-83
0,-375,15675,511,574,-79
0,-374,15656,511,575,-84
0,-363,15669,511,567,-81
0,-353,15672,511,568,-76
0,-364,15652,511,575,-91
0,-366,15661,511,582,-99
0,-381,15659,511,586,-93
0,-383,15659,511,581,-88
0,-387,15666,511,568,-94
0,-378,15676,511,567,-92
0,-383,15687,511,564,-91
0,-376,15687,511,572,-93
0,-369,15924,256,580,-99
0,-365,15672,511,571,-92
0,-354,15920,256,575,-91
0,-341,15919,256,584,-91
0,-342,15926,256,577,-87
0,-340,15923,256,570,-91
0,-340,15930,256,578,-93
0,-348,15660,511,577,-92
0,-360,15665,511,566,-89
0,-365,15665,511,572,-96
0,-359,15656,511,573,-93
0,-362,15643,511,574,-100
0,-357,15642,511,584,-102
0,-346,15642,511,586,-104
0,-363,15894,256,586,-105
0,-361,15907,256,582,-100
0,-387,15892,256,578,-106
0,-360,15916,256,569,-113
0,-346,15683,511,572,-116
0,-359,15692,511,573,-102
0,-349,15659,511,570,-103
0,-356,15653,511,575,-104
0,-357,15672,511,579,-103
0,-351,15673,511,573,-102
0,-362,15650,511,575,-93
0,-359,15650,511,578,-84
0,-389,15647,511,576,-94
0,-383,15911,256,574,-97
0,-349,15891,256,577,-95
0,-343,15904,256,572,-93
0,-355,15663,511,576,-94
0,-347,15658,511,583,-94
0,-342,15659,511,595,-112
0,-363,15672,511,584,-119
0,-371,15679,511,578,-112
0,-362,15925,256,580,-105
0,-374,15917,256,578,-103
0,-388,15920,256,583,-97
0,-359,15919,256,573,-92
0,-356,15644,511,566,-98
0,-365,15884,256,568,-101
0,-357,15634,511,567,-95
0,-357,15898,256,568,-89
0,-363,15644,511,566,-88
0,-386,15644,511,573,-89
0,-377,15904,256,580,-96
0,-353,15932,256,578,-101
0,-370,15952,256,574,-97
0,-355,15938,256,572,-100
0,-370,15916,256,580,-92
0,-377,15655,511,586,-88
0,-361,15659,511,575,-96
0,-360,15914,256,573,-101
0,-331,15928,256,577,-90
0,-346,15910,256,573,-93
0,-349,15911,256,561,-92
0,-333,15661,511,565,-87
0,-350,15675,511,560,-95
0,-365,15666,511,567,-95
0,-351,15670,511,575,-92
0,-363,15949,256,571,-100
0,-385,15953,256,567,-104
0,-361,15952,256,580,-102
0,-391,15928,256,587,-99
0,-407,15909,256,578,-99
0,-408,15908,256,579,-101
0,-372,15637,511,579,-93
0,-380,15910,256,589,-85
0,-371,15654,511,583,-81
0,-344,15666,511,579,-86
0,-335,15929,256,576,-90
0,-334,15929,256,580,-100
0,-357,15926,256,576,-102
0,-366,15927,256,572,-96
0,-351,15932,256,578,-88
0,-337,15932,256,579,-88
0,-352,15921,256,571,-93
0,-361,15931,256,572,-97
0,-382,15663,511,572,-105
0,-390,15659,511,567,-96
0,-391,15660,511,566,-88
0,-388,15680,511,568,-99
0,-363,15694,511,571,-108
0,-371,15693,511,568,-103
0,-369,15715,511,563,-106
0,-345,15682,511,556,-103
0,-349,15678,511,553,-102
0,-367,15664,511,561,-102
0,-373,15668,511,567,-102
0,-375,15662,511,573,-99
0,-396,15671,511,576,-96
0,-378,15670,511,561,-92
0,-392,15939,256,565,-90
0,-385,15912,256,571,-89
0,-365,15893,256,571,-90
0,-358,15894,256,572,-92
0,-355,15937,256,570,-99
0,-367,15670,511,565,-105
0,-367,15671,511,569,-96
