Ax,Ay,Az,Gx,Gy,Gz
-256,-389,15717,511,589,-61
-256,-386,15950,256,589,-73
-256,-377,15689,511,574,-93
-256,-376,15696,511,581,-88
-256,-401,15708,511,579,-88
-256,-450,15758,511,574,-82
-256,-413,15758,511,569,-60
-256,-408,15696,511,559,-73
-256,-368,15952,256,563,-73
-256,-372,15964,256,573,-77
-256,-397,15966,256,577,-84
-256,-414,15717,511,583,-73
-256,-331,15727,511,582,-81
-256,-385,15726,511,566,-83
-256,-364,15695,511,559,-79
-256,-367,15703,511,589,-94
-256,-392,15968,256,571,-76
-256,-400,15719,511,558,-82
-256,-384,15694,511,568,-77
-256,-387,15707,511,570,-76
-256,-366,15725,511,576,-83
-256,-412,15735,511,562,-70
-256,-411,15992,256,569,-59
-256,-411,16025,256,570,-67
-256,-396,15990,256,571,-73
-256,-384,15703,511,571,-83
-256,-427,16017,256,570,-75
-256,-410,16038,256,555,-89
-256,-395,15753,511,566,-101
-256,-396,15766,511,572,-87
-256,-392,15733,511,568,-70
-256,-400,15744,511,583,-59
-256,-379,15693,256,576,-69
-256,-414,15706,511,566,-75
-256,-391,15722,511,586,-75
-256,-385,15706,511,582,-82
-256,-400,15982,256,577,-76
-256,-404,15689,256,582,-87
-256,-456,15691,511,575,-73
-256,-426,15717,511,589,-78
-256,-407,15727,511,584,-77
-256,-436,15708,511,571,-66
-256,-407,15987,256,574,-78
-256,-394,15748,511,595,-75
-256,-368,15730,511,594,-66
-256,-372,15722,511,576,-76
-256,-383,15735,511,575,-72
-256,-391,15972,256,576,-83
-256,-418,15727,511,573,-86
-256,-432,15726,511,577,-64
-256,-434,15736,511,581,-74
-256,-404,15708,511,570,-76
-256,-399,15703,511,573,-83
-256,-421,15684,511,583,-88
-256,-399,15717,511,582,-85
-256,-382,15761,511,580,-63
-256,-394,15709,511,580,-56
-256,-413,15721,511,579,-71
-256,-399,15962,256,575,-71
-256,-393,15960,256,581,-80
-256,-405,15686,511,581,-79
-256,-401,15678,511,579,-69
-256,-416,15703,511,585,-67
-256,-450,15711,511,568,-61
-256,-413,15726,511,585,-61
-256,-397,15757,511,588,-84
-256,-366,15959,256,600,-77
-256,-379,15690,511,593,-68
-256,-400,15705,511,570,-80
-256,-430,15985,256,576,-83
-256,-389,15705,511,581,-65
-256,-402,15736,511,574,-65
-256,-406,15987,256,567,-79
-256,-366,15741,511,574,-74
-256,-358,15722,511,581,-88
-256,-390,15957,256,584,-88
-256,-349,15678,511,586,-86
-256,-414,15962,256,585,-76
-256,-421,15740,511,591,-82
-256,-442,15735,511,592,-75
-256,-448,15734,511,565,-93
-256,-407,15681,511,570,-103
-256,-426,15629,511,573,-98
-256,-437,15734,511,587,-88
-256,-398,15731,511,583,-78
-256,-379,15724,511,588,-69
-256,-373,15719,511,595,-66
-256,-381,15721,511,579,-73
-256,-384,15689,511,561,-86
-256,-362,15697,511,578,-94
-256,-396,15938,256,599,-89
-256,-393,15694,511,572,-85
-256,-394,15735,511,581,-94
-256,-407,15697,511,576,-71
-256,-429,15701,511,580,-99
-256,-424,15955,256,583,-89
-256,-451,15724,511,574,-77
-256,-427,15744,511,580,-57
-256,-411,15983,256,590,-67
-256,-420,15988,256,581,-67
-256,-420,15741,511,576,-78
-256,-404,15941,256,576,-74
-256,-443,15722,511,573,-76
-256,-393,15680,511,570,-75
-256,-366,15704,511,574,-63
-256,-418,15705,511,576,-61
-256,-370,15681,511,571,-63
-256,-358,15959,256,573,-78
-256,-357,15713,511,574,-87
-256,-406,16002,256,578,-87
-256,-414,15720,511,578,-81
-256,-397,15697,511,577,-90
-256,-416,15701,511,584,-82
-256,-391,15732,511,575,-79
-256,-395,15990,256,576,-66
-256,-326,15752,511,579,-82
-256,-345,15757,511,576,-67
-256,-400,15754,511,573,-54
-256,-371,15734,511,584,-81
-256,-379,15689,511,575,-76
-256,-377,15731,511,578,-74
-256,-404,15729,511,584,-59
-256,-376,15710,511,582,-69
-256,-380,15682,511,584,-80
-256,-390,15650,511,596,-75
-256,-399,15692,511,589,-78
-256,-421,15712,511,574,-58
-256,-411,15713,511,567,-65
-256,-408,15751,511,573,-79
-256,-406,15963,256,577,-71
-256,-344,15985,256,568,-83
-256,-379,15700,511,573,-83
-256,-393,15954,256,592,-79
-256,-394,15734,511,574,-74
-256,-380,15698,511,580,-79
-256,-447,15698,511,594,-76
-256,-437,15939,256,572,-64
-256,-383,15963,256,566,-72
-256,-387,15972,256,579,-84
-256,-443,15700,511,596,-91
-256,-441,15728,511,607,-85
-256,-416,15733,511,611,-86
-256,-380,15758,511,600,-72
-256,-398,15764,511,597,-73
-256,-422,15718,511,589,-80
-256,-410,15970,256,577,-82
-256,-405,15713,511,574,-75
-256,-376,15710,511,580,-73
-256,-436,15719,511,573,-68
-256,-402,15711,511,577,-80
-256,-388,15735,511,581,-67
-256,-379,15711,511,584,-65
-256,-382,15676,511,593,-75
-256,-392,15716,511,595,-71
-256,-345,15747,511,591,-79
-256,-377,15725,511,585,-96
-256,-378,15747,511,575,-87
-256,-456,15685,511,570,-97
-256,-412,15683,511,567,-91
-256,-399,15983,256,588,-77
-256,-415,15721,511,587,-74
-256,-374,15958,256,579,-96
-256,-373,15719,511,574,-77
-256,-388,15757,511,573,-75
-256,-442,15750,511,576,-76
-256,-431,15712,511,572,-81
-256,-464,15964,256,565,-79
-256,-423,15957,256,549,-78
-256,-358,15714,511,570,-75
-256,-413,15981,256,586,-73
-256,-406,15704,511,575,-78
-256,-379,15691,511,583,-76
-256,-378,15679,511,586,-76
-256,-373,15665,511,568,-83
-256,-379,15661,511,573,-80
-256,-413,15722,511,571,-66
-256,-332,15712,511,570,-67
-256,-363,15936,256,567,-72
-256,-346,15967,256,563,-79
-256,-359,15698,511,584,-65
-256,-396,15711,511,585,-67
-256,-355,15738,511,587,-65
-256,-338,15703,511,579,-61
-256,-374,15672,511,574,-77
-256,-355,15712,511,571,-61
-256,-358,15767,511,581,-79
-256,-361,15746,511,575,-73
-256,-399,15774,511,576,-71
-256,-389,15743,511,583,-65
-256,-396,15717,511,567,-57
-256,-382,15682,511,560,-71
-256,-391,15722,511,564,-76
-256,-377,15992,256,584,-92
-256,-407,15965,256,578,-99
-256,-436,15969,256,565,-84
-256,-420,15731,511,564,-75
-256,-417,15711,511,577,-74
-256,-415,15713,511,574,-84
-256,-414,15690,511,560,-85
-256,-404,15694,256,557,-67
-256,-401,15730,511,552,-66
-256,-411,15697,511,573,-91
-256,-435,15966,256,578,-70
-256,-408,15713,511,579,-82
-256,-398,15959,256,573,-94
-256,-398,15674,511,597,-71
-256,-420,15905,256,592,-75
-256,-410,15961,256,600,-72
-256,-418,15720,511,585,-85
-256,-417,15722,511,577,-83
-256,-394,15755,511,580,-72
-256,-395,15739,511,576,-92
-256,-405,15712,511,567,-81
-256,-408,16014,256,569,-66
-256,-416,15731,511,565,-76
-256,-429,15739,511,574,-70
-256,-384,15710,511,580,-75
-256,-374,15710,511,571,-71
-256,-418,15703,511,581,-71
-256,-396,15680,511,579,-73
-256,-399,15710,511,556,-83
-256,-385,15735,511,562,-84
-256,-357,15740,511,579,-67
-256,-369,15698,511,588,-57
-256,-392,15695,511,586,-72
-256,-420,15746,511,578,-95
-256,-426,15727,511,573,-88
-256,-387,15743,511,565,-78
-256,-450,15982,256,571,-82
-256,-403,15692,511,573,-77
-256,-423,15667,511,570,-89
-256,-421,15725,511,581,-100
-256,-444,15714,511,581,-94
-256,-393,15721,511,579,-89
-256,-387,15720,511,582,-89
-256,-385,15695,511,578,-85
-256,-386,15716,511,584,-97
-256,-411,15972,256,567,-85
-256,-402,15722,511,582,-84
-256,-370,15979,256,576,-75
-256,-382,15754,511,579,-67
-256,-433,15757,511,566,-91
-256,-421,15957,256,577,-81
-256,-404,16004,256,567,-75
-256,-411,15982,256,570,-95
-256,-445,15949,256,569,-76
-256,-425,15948,256,557,-80
-256,-426,15967,256,562,-81
-256,-400,15743,511,570,-72
-256,-390,15741,511,577,-74
-256,-401,15726,511,575,-73
-256,-412,15734,511,586,-73
-256,-406,15722,511,586,-73
-256,-371,15682,256,573,-75
-256,-389,15680,511,586,-71
-256,-420,15960,256,592,-54
-256,-386,15693,511,579,-72
-256,-410,15693,511,583,-76
-256,-383,15711,511,564,-74
-256,-408,15981,256,573,-54
-256,-362,15991,256,592,-71
-256,-399,15719,511,580,-82
-256,-404,15966,256,596,-61
-256,-417,15709,511,578,-62
-256,-401,15730,511,561,-83
-256,-370,15739,511,583,-83
-256,-398,15731,511,596,-77
-256,-383,15705,511,585,-73
-256,-371,15690,511,573,-78
-256,-395,15738,511,572,-85
-256,-360,15959,256,582,-82
-256,-374,15706,511,582,-82
-256,-368,15984,256,584,-91
-256,-384,15996,256,571,-89
-256,-394,15729,511,580,-64
-256,-358,15721,511,567,-59
-256,-388,15731,511,563,-63
-256,-395,15736,511,554,-71
-256,-406,15724,511,581,-69
-256,-401,15713,511,589,-76
-256,-442,15953,256,583,-70
-256,-415,15940,256,583,-72
-256,-394,15710,511,553,-60
-256,-389,15993,256,564,-64
-256,-375,15731,511,559,-66
-256,-424,15748,511,566,-74
-256,-421,16002,256,575,-69
-256,-424,15737,511,582,-74
-256,-435,15742,511,587,-76
-256,-397,15759,511,582,-86
-256,-388,15971,256,580,-72
-256,-399,15970,256,590,-57
-256,-411,15922,256,588,-76
-256,-380,15977,256,580,-97
-256,-399,15980,256,586,-86
-256,-413,15709,511,578,-81
-256,-434,15715,511,578,-80
-256,-407,15701,511,589,-73
-256,-436,15949,256,594,-79
-256,-418,15717,511,579,-75
-256,-396,15708,511,579,-87
-256,-398,15993,256,570,-73
-256,-382,15734,511,558,-76
-256,-394,15782,511,574,-83
-256,-372,15747,511,593,-85
-256,-359,15730,511,590,-72
-256,-388,15964,256,581,-68
-256,-379,15971,256,591,-80
-256,-381,15762,511,589,-100
-256,-413,16046,256,577,-90
-256,-389,15967,256,580,-100
-256,-360,15709,511,585,-86
-256,-382,16008,256,583,-69
-256,-362,15704,511,574,-66
-256,-404,15709,511,572,-74
-256,-404,15722,511,569,-78
-256,-362,15965,256,575,-77
-256,-371,15960,256,574,-65
-256,-367,15941,256,580,-73
-256,-374,15963,256,570,-77
-256,-363,15710,511,577,-64
-256,-385,15744,511,588,-71
-256,-370,15738,511,588,-83
-256,-381,15726,511,575,-83
-256,-394,15703,511,573,-71
-256,-387,15684,511,566,-67
-256,-416,15961,256,567,-65
-256,-446,15691,511,584,-64
-256,-381,15702,511,573,-74
-256,-401,15939,256,579,-84
-256,-389,15697,511,578,-85
-256,-419,15694,511,576,-63
-256,-370,15649,511,571,-72
-256,-385,15699,511,564,-81
-256,-369,15663,511,569,-83
-256,-393,15700,511,575,-81
-256,-391,15954,256,590,-81
-256,-376,15952,256,582,-75
-256,-406,15978,256,581,-81
-256,-400,15657,511,589,-74
-256,-384,15677,511,576,-63
-256,-378,15669,511,580,-64
-256,-381,15718,511,571,-80
-256,-384,15753,511,573,-83
-256,-375,15747,511,576,-95
-256,-415,15993,256,572,-77
-256,-390,15709,511,574,-94
-256,-390,15967,256,571,-87
-256,-367,15699,511,578,-64
-256,-368,15685,511,579,-73
-256,-386,16001,256,577,-82
-256,-379,15971,256,593,-90
-256,-369,15940,256,568,-75
-256,-420,15733,511,574,-76
-256,-385,15749,511,579,-66
-256,-373,15725,511,575,-76
-256,-395,15708,511,567,-85
-256,-384,15713,511,566,-79
-256,-368,15719,511,558,-47
-256,-396,15730,511,564,-49
-256,-380,15790,511,568,-62
-256,-411,15717,511,565,-66
-256,-395,15673,511,565,-65
-256,-411,15685,511,581,-66
-256,-397,15668,511,590,-95
-256,-392,15661,511,586,-84
-256,-390,15676,511,588,-88
-256,-367,15715,511,573,-76
-256,-384,15763,511,569,-74
-256,-389,15697,511,578,-83
-256,-405,15728,511,586,-86
-256,-385,15768,511,563,-78
-256,-379,15734,511,570,-68
-256,-435,15718,511,578,-79
-256,-429,15985,256,577,-82
-256,-386,15963,256,583,-88
-256,-425,15687,511,570,-77
-256,-406,15695,511,576,-90
-256,-381,15998,256,600,-78
-256,-431,16001,256,594,-72
-256,-416,15703,511,588,-63
-256,-353,15702,511,588,-85
-256,-377,15682,511,576,-93
-256,-401,15721,511,581,-71
-256,-413,15724,511,580,-72
-256,-421,15677,511,583,-60
-256,-374,15962,256,591,-62
-256,-382,15966,256,584,-54
-256,-416,15722,511,591,-56
-256,-410,16017,256,593,-68
-256,-387,15773,511,577,-72
-256,-416,16027,256,575,-72
-256,-428,15971,256,578,-76
-256,-395,15675,511,575,-94
-256,-407,15674,511,580,-81
-256,-384,15964,256,578,-75
-256,-397,15705,511,581,-81
-256,-418,15696,511,576,-73
-256,-421,15945,256,575,-73
-256,-423,15698,511,562,-84
-256,-416,15701,511,571,-74
-256,-383,15747,511,568,-77
-256,-389,15714,511,573,-84
-256,-386,15732,511,552,-67
-256,-406,15718,511,567,-66
-256,-430,15671,511,576,-76
-256,-392,15674,511,569,-83
-256,-437,15704,511,573,-64
-256,-371,15721,511,576,-79
-256,-382,15710,511,571,-88
-256,-399,15698,511,569,-93
-256,-384,15717,511,574,-89
-256,-403,15772,511,566,-76
-256,-423,16021,256,559,-70
-256,-403,15725,511,571,-77
-256,-397,15699,511,582,-88
-256,-386,15693,511,567,-72
-256,-404,15706,511,589,-68
-256,-414,15974,256,581,-75
-256,-407,15696,511,584,-83
-256,-424,15698,511,588,-61
-256,-411,15697,511,579,-62
-256,-426,15744,511,571,-63
-256,-385,15742,511,573,-71
-256,-416,15708,511,573,-68
-256,-436,15942,256,575,-79
-256,-385,15705,511,560,-78
-256,-401,15703,511,551,-80
-256,-393,15729,511,579,-93
-256,-383,15737,511,580,-84
-256,-395,15712,511,559,-90
-256,-426,15698,511,567,-87
-256,-423,15936,256,569,-68
-256,-386,15692,511,567,-51
-256,-370,15733,511,578,-67
-256,-393,15725,511,581,-70
-256,-398,15679,511,576,-66
-256,-423,15674,511,574,-68
-256,-463,15689,511,568,-64
-256,-421,15736,511,561,-85
-256,-428,16008,256,550,-82
-256,-442,15739,511,564,-71
-256,-425,15733,511,572,-68
-256,-431,15677,511,569,-57
-256,-425,15945,256,566,-69
-256,-409,15940,256,570,-64
-256,-407,15681,511,575,-74
-256,-403,15722,511,582,-63
-256,-420,15697,511,579,-57
-256,-412,15720,511,570,-68
-256,-420,15999,256,576,-72
-256,-401,15954,256,583,-74
-256,-396,15948,256,587,-75
-256,-396,15676,511,584,-91
-256,-399,15703,511,579,-86
-256,-402,15747,511,572,-80
-256,-399,15705,511,572,-70
-256,-409,15718,511,587,-60
-256,-379,15735,511,591,-66
-256,-340,15727,511,584,-79
-256,-372,15729,511,563,-83
-256,-392,15704,511,567,-71
-256,-440,15991,256,575,-70
-256,-421,15973,256,578,-77
-256,-415,15696,511,587,-80
-256,-419,15709,511,584,-71
-256,-386,15968,256,586,-67
-256,-409,15698,511,565,-89
-256,-425,15712,511,556,-69
-256,-403,15709,511,569,-47
-256,-405,15976,256,573,-69
-256,-377,15728,511,582,-82
-256,-376,15721,511,563,-89
-256,-375,15959,256,568,-96
-256,-383,15962,256,574,-102
-256,-380,15724,511,578,-100
-256,-429,15718,511,586,-89
-256,-435,15702,511,575,-79
-256,-455,15696,511,573,-71
-256,-454,15671,511,578,-72
-256,-431,15698,511,570,-79
-256,-412,15991,256,568,-77
-256,-408,15970,256,572,-75
-256,-418,15688,511,564,-72
-256,-422,15710,511,550,-75
-256,-380,15951,256,571,-94
-256,-386,15670,511,565,-87
-256,-416,15972,256,564,-85
-256,-416,15736,511,582,-74
-256,-405,15714,511,583,-70
-256,-380,15743,511,564,-78
-256,-385,15713,511,558,-71
-256,-351,15728,511,573,-69
-256,-410,15722,511,573,-70
-256,-428,15726,511,579,-64
-256,-421,15714,511,569,-72
-256,-385,15736,511,576,-85
-256,-398,15751,511,574,-74
-256,-396,15692,256,571,-70
-256,-362,15705,511,584,-73
-256,-393,15683,511,569,-83
-256,-398,15698,511,562,-72
-256,-392,16000,256,566,-62
-256,-424,15726,511,581,-58
-256,-390,15977,256,569,-84
-256,-380,16005,256,561,-84
-256,-415,15746,511,576,-72
-256,-435,15980,256,564,-62
-256,-391,15964,256,562,-70
-256,-401,15742,511,563,-82
-256,-367,15744,511,564,-73
-256,-347,15988,256,560,-79
-256,-366,15725,511,580,-88
-256,-435,15720,511,578,-69
-256,-442,15715,511,590,-68
-256,-404,15725,511,590,-66
-256,-434,15715,511,591,-72
-256,-399,15728,511,560,-92
-256,-410,15739,511,586,-87
-256,-388,15713,511,585,-74
-256,-379,16011,256,581,-80
-256,-375,15786,511,576,-80
-256,-412,15727,511,566,-81
-256,-377,15688,511,573,-78
-256,-358,15701,511,570,-76
-256,-363,15684,511,566,-79
-256,-388,15733,511,564,-78
-256,-405,15716,511,569,-87
-256,-395,15717,511,566,-82
-256,-364,15689,511,556,-76
-256,-392,15976,256,565,-75
-256,-383,16008,256,566,-75
-256,-381,15724,511,571,-87
-256,-411,15717,511,585,-93
-256,-382,15695,511,578,-78
-256,-378,15634,511,572,-93
-256,-400,15720,511,562,-88
-256,-351,15717,511,570,-75
-256,-336,15724,511,571,-70
-256,-373,15949,256,567,-61
-256,-362,15952,256,570,-66
-256,-403,15716,511,581,-71
-256,-400,15685,511,587,-64
-256,-406,15954,256,578,-64
-256,-410,15928,256,586,-68
-256,-397,15676,511,578,-74
-256,-391,15717,511,583,-98
-256,-377,15697,511,578,-75
-256,-350,15900,256,589,-72
-256,-354,15725,511,579,-80
-256,-390,15979,256,566,-74
-256,-400,15737,511,580,-73
-256,-418,15685,511,564,-73
-256,-390,15690,511,558,-74
-256,-420,15739,511,565,-83
-256,-402,16006,256,571,-73
-256,-390,15729,511,579,-73
-256,-366,15956,256,574,-78
-256,-358,15723,511,565,-86
-256,-387,15969,256,583,-91
-256,-385,15979,256,573,-90
-256,-388,15722,511,573,-74
-256,-404,15976,256,572,-55
-256,-412,15985,256,578,-59
-256,-395,15697,511,588,-56
-256,-360,15689,511,584,-70
-256,-423,15717,511,575,-77
-256,-402,15673,511,586,-56
-256,-365,15956,256,580,-56
-256,-372,15966,256,583,-79
-256,-440,15698,511,591,-83
-256,-418,15960,256,594,-64
-256,-417,15671,511,581,-72
-256,-416,15679,511,578,-56
-256,-410,15969,256,594,-74
-256,-402,15728,511,591,-79
-256,-406,15710,511,563,-68
-256,-409,15729,511,566,-49
-256,-384,15725,511,572,-77
-256,-414,15972,256,573,-68
-256,-415,15685,511,565,-71
-256,-378,15960,256,572,-73
-256,-374,15944,256,582,-67
-256,-419,15994,256,588,-85
-256,-426,15980,256,577,-79
-256,-387,15708,511,568,-84
-256,-383,15726,511,574,-88
-256,-398,15955,256,578,-68
-256,-402,15974,256,576,-72
-256,-396,16004,256,589,-55
-256,-382,15725,511,592,-58
-256,-412,15738,511,583,-73
-256,-402,15751,511,571,-65
-256,-395,15746,511,570,-72
-256,-410,15744,511,573,-91
-256,-381,15717,511,566,-88
-256,-415,15714,511,571,-88
-256,-430,15711,511,588,-87
-256,-396,15712,511,582,-91
-256,-395,15717,511,578,-100
-256,-407,15699,511,584,-92
-256,-376,15961,256,589,-89
-256,-404,15968,256,571,-86
-256,-394,15693,511,562,-87
-256,-419,15741,511,587,-80
-256,-420,15741,511,589,-78
-256,-403,15683,511,571,-77
-256,-431,15707,511,559,-64
-256,-407,15981,256,563,-67
-256,-403,16013,256,560,-81
-256,-399,15777,511,572,-77
-256,-378,15750,511,590,-91
-256,-352,15751,511,581,-87
-256,-409,15701,511,567,-80
-256,-394,15639,511,574,-85
-256,-390,15719,511,574,-80
-256,-429,15746,511,560,-70
-256,-404,15736,511,569,-77
-256,-421,15732,511,574,-91
-256,-405,15746,511,566,-86
-256,-389,15742,511,564,-77
-256,-362,16013,256,570,-77
-256,-378,15734,511,586,-90
-256,-356,15988,256,581,-71
-256,-387,15978,256,588,-50
-256,-372,15727,511,570,-66
-256,-382,16009,256,567,-77
-256,-392,15985,256,572,-95
-256,-410,15988,256,566,-71
-256,-438,15987,256,568,-60
-256,-411,15686,511,569,-67
-256,-381,15951,256,561,-71
-256,-373,15717,511,572,-82
-256,-419,15730,511,560,-67
-256,-376,15994,256,555,-69
-256,-387,15725,511,575,-67
-256,-375,15690,511,588,-61
-256,-428,15693,511,576,-83
-256,-405,15703,511,576,-84
-256,-387,15725,511,576,-84
-256,-376,15735,511,573,-92
-256,-389,15706,511,577,-76
-256,-430,16010,256,590,-73
-256,-436,15710,511,579,-82
-256,-487,15683,511,568,-79
-256,-401,15938,256,575,-70
-256,-423,15945,256,562,-88
-256,-405,15970,256,576,-85
-256,-423,15708,511,582,-73
-256,-391,15710,511,583,-81
-256,-367,15718,511,587,-77
-256,-400,15699,511,580,-79
-256,-428,15706,511,577,-84
-256,-441,15739,511,566,-83
-256,-417,15722,511,575,-88
-256,-413,15967,256,579,-95
-256,-380,15998,256,567,-89
-256,-385,15759,511,578,-70
-256,-406,16010,256,561,-86
-256,-377,15715,511,561,-91
-256,-341,15692,511,572,-72
-256,-372,15713,511,558,-73
-256,-370,15694,511,562,-76
-256,-403,15699,511,576,-62
-256,-383,15685,511,569,-75
-256,-376,15701,511,567,-78
-256,-368,15722,511,570,-77
-256,-388,15672,511,568,-77
-256,-374,15707,511,569,-65
-256,-393,15702,511,574,-75
-256,-383,15705,511,569,-57
-256,-327,15674,511,571,-84
-256,-368,15719,511,577,-74
-256,-409,15994,256,583,-71
-256,-381,15684,511,580,-83
-256,-391,15706,511,564,-80
-256,-401,15740,511,569,-73
-256,-427,15990,256,560,-87
-256,-435,15721,511,561,-79
-256,-395,15968,256,567,-76
-256,-377,15749,511,563,-83
-256,-371,15771,511,576,-73
-256,-381,15728,511,568,-86
-256,-386,15721,511,572,-80
-256,-423,15707,511,570,-66
-256,-430,15989,256,580,-77
-256,-381,16016,256,576,-80
-256,-374,15716,511,573,-70
-256,-357,15714,511,561,-70
-256,-401,15693,511,568,-77
-256,-425,15751,511,581,-91
-256,-389,15737,511,564,-92
-256,-405,15992,256,581,-82
-256,-397,15701,511,580,-79
-256,-442,15696,511,584,-74
-256,-372,15962,256,592,-79
-256,-377,15701,511,585,-76
-256,-374,15719,511,573,-78
-256,-358,15725,511,569,-67
-256,-389,15724,511,566,-65
-256,-413,15734,511,574,-71
-256,-352,15727,511,591,-75
-256,-380,15726,511,579,-67
-256,-360,15755,511,569,-86
-256,-392,15722,511,565,-65
-256,-402,15755,511,577,-72
-256,-423,16031,256,568,-80
-256,-414,15723,511,562,-82
-256,-359,15967,256,580,-79
-256,-394,15749,511,580,-79
-256,-411,15758,511,583,-64
-256,-381,15700,511,588,-65
-256,-372,15709,511,586,-86
-256,-393,15758,511,580,-98
-256,-387,15757,511,577,-86
-256,-383,15758,511,582,-79
-256,-388,15746,511,577,-57
-256,-415,15761,511,570,-68
-256,-395,15763,511,569,-71
-256,-383,15712,511,575,-83
-256,-360,15696,511,582,-75
-256,-377,15994,256,577,-58
-256,-383,15723,511,564,-63
-256,-405,15694,511,562,-69
-256,-418,15699,511,579,-71
-256,-415,15709,511,574,-78
-256,-407,15737,511,561,-66
-256,-420,15729,511,566,-55
-256,-429,15735,511,573,-61
-256,-437,16017,256,550,-70
-256,-396,15981,256,556,-74
-256,-379,15717,511,578,-57
-256,-381,15712,511,568,-70
-256,-409,15732,511,558,-90
-256,-378,15723,511,567,-88
-256,-347,15702,511,563,-90
-256,-384,15702,511,576,-83
-256,-363,15728,511,573,-71
-256,-366,15722,511,581,-97
-256,-420,15749,511,584,-99
-256,-375,15704,511,593,-61
-256,-384,15714,511,570,-67
-256,-399,15710,511,573,-85
-256,-390,15703,511,579,-89
-256,-375,15705,511,583,-78
-256,-398,15686,511,591,-85
-256,-373,15752,511,601,-85
-256,-397,15743,511,589,-74
-256,-351,15983,256,588,-88
-256,-336,15701,511,588,-77
-256,-371,15695,511,587,-62
-256,-407,15762,511,579,-72
-256,-416,15717,511,567,-68
-1,-423,15736,511,569,-77
-256,-408,15722,511,576,-74
-256,-387,15724,511,580,-58
-256,-386,15717,511,576,-63
-256,-385,15728,511,577,-73
-256,-369,15705,511,582,-72
-256,-375,15718,511,590,-80
-256,-396,15699,511,583,-72
-256,-398,15727,511,581,-60
-256,-420,15720,511,600,-67
-256,-450,16034,256,585,-88
-256,-433,16002,256,584,-83
-256,-417,15981,256,568,-83
-256,-412,15755,511,571,-83
-256,-377,15996,256,583,-83
-256,-385,15680,511,590,-80
-256,-389,15697,511,565,-72
-256,-378,15705,511,582,-56
-256,-416,15724,511,580,-53
-256,-409,15690,511,580,-80
-256,-423,15698,511,579,-67
-256,-407,15740,511,577,-70
-256,-382,15732,511,574,-68
-256,-364,15727,511,575,-63
-256,-376,15724,511,567,-74
-256,-398,15732,511,570,-76
-256,-385,15997,256,570,-89
-256,-423,15709,511,569,-87
-256,-405,15954,256,575,-82
-256,-427,15944,256,573,-73
-256,-415,15984,256,567,-59
-256,-408,15999,256,567,-84
-256,-386,15679,511,570,-89
-256,-410,15978,256,574,-60
-256,-399,15732,511,576,-78
-256,-416,15716,511,592,-73
-256,-399,15993,256,582,-68
-256,-388,15726,511,568,-59
-256,-395,15722,511,577,-76
-256,-388,15746,511,574,-68
-256,-413,15740,511,575,-76
-256,-397,15732,511,584,-74
-256,-397,15749,511,568,-79
-256,-427,15720,511,580,-64
-256,-406,15713,511,585,-78
-256,-399,15718,511,580,-70
-256,-412,15680,511,576,-79
-256,-401,15699,256,566,-72
-256,-383,15679,256,580,-74
-256,-372,15690,511,575,-82
-256,-373,15958,256,592,-87
-256,-364,15715,511,587,-107
-256,-348,15749,511,585,-93
-256,-386,15726,511,581,-80
-256,-398,15702,511,573,-71
-256,-406,15706,511,570,-68
-256,-382,15678,511,585,-78
-256,-370,15936,256,587,-70
-256,-401,15963,256,584,-68
-256,-371,15683,511,585,-80
-256,-373,15982,256,572,-83
-256,-389,15700,511,567,-71
-256,-399,15721,511,562,-93
-256,-397,15727,511,573,-82
-256,-376,15974,256,554,-67
-256,-433,15732,511,560,-73
-256,-432,15697,511,574,-71
-256,-396,15727,511,569,-71
-256,-391,16013,256,572,-63
-256,-411,15970,256,570,-81
-256,-417,15714,511,565,-99
-256,-392,15679,511,578,-79
-256,-383,15743,511,566,-82
-256,-367,15692,511,579,-62
-256,-410,15686,511,583,-66
-256,-399,15699,511,592,-87
-256,-401,15695,511,586,-93
-256,-408,15956,256,580,-84
-256,-404,15722,511,580,-77
-256,-390,15730,511,574,-84
-256,-429,15704,511,574,-72
-256,-398,15730,511,573,-62
-256,-368,15697,511,572,-72
-256,-362,15714,511,571,-78
-256,-375,15741,511,565,-73
-256,-390,15745,511,567,-68
-256,-380,15745,511,573,-68
-256,-434,15728,511,572,-61
-256,-424,15694,511,574,-75
-256,-384,15708,511,582,-79
-256,-401,15958,256,573,-61
-256,-393,15689,511,575,-82
-256,-422,15936,256,572,-84
-256,-408,15925,256,573,-69
-256,-418,15721,511,583,-46
-256,-458,15728,511,579,-69
-256,-419,15721,511,575,-82
-256,-406,15725,511,562,-68
-256,-445,15700,511,564,-86
-256,-395,15689,511,582,-86
-256,-376,15721,511,582,-82
-256,-403,15716,511,585,-83
-256,-401,15733,511,590,-71
-256,-388,16001,256,580,-77
-256,-376,15979,256,584,-80
-256,-407,15983,256,589,-75
-256,-384,15970,256,574,-74
-256,-387,15956,256,557,-73
-256,-384,15970,256,563,-68
-256,-363,15713,511,578,-76
-256,-378,15714,511,567,-76
-256,-416,15704,511,576,-69
-256,-392,15739,511,584,-68
-256,-381,15953,256,588,-64
-256,-415,15694,511,569,-58
-256,-396,15700,511,571,-60
-256,-402,16012,256,581,-79
-256,-392,15729,511,577,-80
-256,-377,15678,511,575,-79
-256,-386,15709,511,576,-79
-256,-432,15990,256,574,-89
-256,-383,15980,256,583,-79
-256,-369,15727,511,573,-69
-256,-325,15977,256,576,-77
-256,-395,15982,256,584,-76
-256,-406,15979,256,579,-78
-256,-367,15964,256,572,-79
-256,-402,15980,256,578,-72
-256,-417,15983,256,578,-67
-256,-420,15703,511,567,-68
-256,-439,15679,511,579,-77
-256,-429,15975,256,587,-67
-256,-396,15700,511,579,-81
-256,-387,15953,256,574,-94
-256,-397,15749,511,580,-87
-256,-395,15763,511,584,-81
-256,-389,15759,511,581,-85
-256,-400,15728,511,577,-75
-256,-421,15716,511,557,-75
-256,-369,15724,511,561,-87
-256,-404,15749,511,581,-91
-256,-409,15732,511,572,-87
-256,-392,15710,511,583,-75
-256,-415,15708,511,584,-77
-256,-395,15994,256,591,-82
-256,-388,15727,511,581,-75
-256,-404,15705,511,583,-55
-256,-416,15724,511,586,-70
-256,-410,15727,511,570,-86
-256,-392,15742,511,577,-71
-256,-406,15759,511,575,-68
-256,-389,15995,256,576,-63
-256,-416,15931,256,578,-60
-256,-377,15966,256,583,-93
-256,-369,15958,256,579,-83
-256,-412,15711,511,572,-76
-256,-364,15727,511,577,-71
-256,-373,15713,511,575,-60
-256,-410,15701,511,578,-67
-256,-433,15727,511,574,-70
-256,-390,15971,256,581,-66
-256,-350,15975,256,582,-69
-256,-389,15699,511,564,-84
-256,-434,15695,511,564,-64
-256,-413,15683,511,573,-55
-256,-360,15672,511,555,-86
-256,-359,15697,511,573,-88
-256,-366,15687,511,564,-80
-256,-439,15724,511,570,-84
-256,-427,15974,256,563,-90
-256,-409,15729,511,560,-78
-256,-372,15699,511,568,-70
-256,-372,15707,511,572,-63
-256,-425,15998,256,579,-72
-256,-413,15689,511,571,-64
-256,-380,15967,256,560,-72
-256,-419,15981,256,563,-80
-256,-423,15748,511,581,-60
-256,-429,15721,511,585,-58
-256,-402,15697,511,591,-71
-256,-398,15704,511,579,-74
-256,-393,15697,511,579,-74
-256,-407,15713,511,587,-75
-256,-383,15696,511,576,-71
-256,-416,15680,511,566,-78
-256,-398,15717,511,578,-74
-256,-387,15731,511,584,-65
-256,-407,15709,511,586,-72
-256,-361,15980,256,591,-79
-256,-401,15956,256,580,-60
-256,-399,15746,511,567,-67
-256,-375,15710,511,562,-67
-256,-396,15731,511,583,-70
-256,-444,15735,511,564,-73
-256,-378,15684,511,570,-72
-256,-411,15976,256,571,-66
-256,-413,15710,511,564,-72
-256,-449,15972,256,577,-79
-256,-435,15710,511,586,-76
-256,-392,15690,511,573,-72
-256,-390,15955,256,579,-79
-256,-401,16003,256,580,-80
-256,-410,15706,511,579,-67
-256,-413,15966,256,571,-83
-256,-381,15699,511,584,-84
-256,-426,15694,511,586,-86
-256,-395,15722,511,571,-84
-256,-413,15752,511,574,-68
-256,-361,15978,256,566,-73
-256,-356,15731,511,560,-86
-256,-403,15702,511,571,-98
-256,-403,15681,511,579,-88
-256,-414,15690,511,592,-85
-256,-431,15973,256,588,-80
-256,-432,15674,511,584,-76
-256,-415,15721,511,580,-97
-256,-375,15701,511,582,-79
-256,-396,15707,511,575,-81
-256,-360,15706,511,585,-93
-256,-407,15719,511,582,-84
-256,-391,15718,511,580,-79
-256,-362,15738,511,577,-86
-256,-407,15737,511,580,-76
-256,-422,15735,511,580,-82
-256,-423,15677,511,572,-73
-256,-418,15701,511,573,-86
-256,-386,15686,511,567,-83
-256,-356,15997,256,560,-78
-256,-340,15711,511,568,-69
-256,-366,15699,511,557,-66
-256,-383,15661,511,571,-83
-256,-384,15644,511,570,-75
-256,-413,15944,256,570,-65
-256,-397,15734,511,562,-77
-256,-378,15942,256,562,-80
-256,-411,15712,511,558,-89
-256,-411,15702,511,563,-83
-256,-392,15951,256,575,-71
-256,-411,15733,511,574,-79
-256,-404,15702,511,587,-84
-256,-417,15681,511,595,-93
-256,-414,15982,256,583,-82
-256,-431,15991,256,576,-75
-256,-401,15708,511,581,-77
-256,-395,15970,256,585,-81
-256,-404,15701,511,570,-69
-256,-414,15664,511,566,-93
-256,-419,15709,511,570,-83
-256,-434,15687,256,577,-85
-256,-409,15697,511,577,-69
-256,-426,15722,511,580,-83
-256,-382,15731,511,589,-80
-256,-382,15765,511,581,-89
-256,-384,15964,256,581,-76
-256,-415,15993,256,584,-73
-256,-384,15742,511,569,-80
-256,-398,15735,511,567,-77
-256,-389,15722,511,557,-81
-256,-366,15753,511,567,-83
-256,-390,15995,256,578,-81
-256,-368,15726,511,577,-68
-256,-372,16003,256,574,-70
-256,-422,15988,256,575,-87
-256,-453,15707,511,583,-82
-256,-428,15691,511,588,-73
-256,-423,15718,511,560,-85
-256,-416,15718,511,566,-64
-256,-390,15747,511,586,-72
-256,-379,15766,511,574,-76
-256,-345,15723,511,571,-74
-256,-399,15992,256,581,-82
-256,-403,15686,511,565,-69
-256,-430,15755,511,569,-84
-256,-367,15757,511,577,-80
-256,-389,15948,256,571,-86
-256,-396,15699,511,569,-79
-256,-412,15712,511,574,-86
-256,-385,15723,511,559,-97
-256,-401,15730,511,574,-96
-256,-412,15745,511,565,-101
-256,-377,15756,511,571,-81
-256,-385,16032,256,568,-69
-256,-392,15729,511,564,-59
-256,-421,15708,511,582,-60
-256,-418,15699,511,579,-72
-256,-421,15669,511,555,-70
-256,-363,15723,511,553,-67
-256,-383,15735,511,568,-65
-256,-374,15711,511,575,-73
-256,-370,15728,511,566,-81
-256,-366,15721,511,556,-82
-256,-394,15710,511,578,-94
-256,-386,15715,511,569,-70
-256,-408,15976,256,565,-68
-256,-434,15962,256,575,-79
-256,-391,15727,511,580,-86
-256,-412,15726,511,575,-80
-256,-364,16009,256,578,-81
-256,-349,15733,511,582,-66
-256,-404,15724,511,574,-64
-256,-391,15730,511,570,-64
-256,-351,15946,256,577,-72
-256,-354,15733,511,572,-75
-256,-390,15721,511,567,-71
-256,-419,15708,511,570,-78
-256,-385,15726,511,588,-88
-256,-399,15719,511,586,-83
-256,-392,15768,511,593,-99
-256,-371,15999,256,575,-80
-256,-420,15717,511,553,-79
-256,-435,15716,511,558,-81
-256,-450,15717,511,563,-70
-256,-401,15712,511,556,-67
-256,-407,15672,511,572,-75
-256,-423,15698,511,580,-79
-256,-377,15955,256,573,-72
-256,-404,15689,511,564,-50
-256,-387,15719,511,579,-81
-256,-369,15722,511,584,-93
-256,-371,15703,511,584,-81
-256,-406,15974,256,577,-73
-256,-389,15964,256,592,-75
-256,-395,15980,256,583,-73
-256,-374,15700,511,572,-69
-256,-360,15947,256,571,-67
-256,-357,15743,511,565,-68
-256,-377,15736,511,579,-66
-256,-421,15741,511,576,-64
-256,-406,15714,511,579,-71
-256,-390,15718,511,570,-67
-256,-412,15757,511,576,-76
-256,-395,15752,511,575,-94
-256,-396,15706,511,581,-83
-256,-402,15738,511,575,-94
-256,-366,15731,511,582,-88
-256,-383,15719,511,584,-75
-256,-427,15731,511,574,-75
-256,-426,15731,511,560,-76
-256,-405,15751,511,555,-64
-256,-381,15752,511,561,-70
-256,-409,15755,511,564,-87
-256,-422,15725,511,560,-73
-256,-376,15704,511,574,-77
-256,-392,15676,511,588,-92
-256,-404,15740,256,591,-88
-256,-419,15743,511,568,-73
-256,-392,15701,511,572,-67
-256,-355,15681,511,592,-88
-256,-355,15671,511,587,-66
-256,-418,15986,256,571,-67
-256,-453,15972,256,571,-87
-256,-468,15988,256,573,-85
-256,-386,15732,511,574,-63
-256,-356,15758,511,570,-59
-256,-397,16005,256,569,-59
-256,-399,15747,511,577,-76
-256,-415,15739,511,578,-58
-256,-407,15738,511,581,-70
-256,-433,15984,256,592,-51
-256,-378,15727,511,585,-82
-256,-369,15745,511,575,-85
-256,-437,15745,511,564,-70
-256,-373,15756,511,573,-79
-256,-362,16015,256,571,-74
-256,-385,15728,511,583,-78
-256,-389,15763,511,584,-69
-256,-366,16002,256,571,-51
-256,-356,15982,256,554,-64
-256,-413,15693,511,579,-84
-256,-370,15939,256,600,-65
-256,-358,15676,511,583,-77
-256,-389,15965,256,573,-77
-256,-396,15727,511,577,-77
-256,-398,15718,511,572,-75
-256,-386,15958,256,578,-76
-256,-385,15958,256,594,-79
-256,-351,15984,256,589,-66
-256,-356,15964,256,574,-79
-256,-386,15729,511,572,-75
-256,-435,15725,511,586,-79
-256,-432,15680,511,588,-80
-256,-416,15685,511,590,-68
-256,-448,15989,256,577,-91
-256,-426,15691,511,575,-93
-256,-420,15706,511,569,-79
-256,-392,15747,511,572,-88
-256,-372,15958,256,582,-89
-256,-407,15688,511,588,-80
-256,-398,15737,511,580,-60
-256,-374,15643,511,589,-79
-256,-390,15680,511,581,-73
-256,-446,15974,256,581,-78
-256,-439,16047,256,569,-77
-256,-410,15773,511,571,-75
-256,-390,15705,511,569,-73
-256,-390,15713,511,561,-74
-256,-437,15720,511,570,-75
-256,-408,15713,511,585,-61
-256,-371,15707,511,601,-68
-256,-357,15687,511,584,-73
-256,-399,15961,256,585,-70
-256,-409,15746,511,588,-66
-256,-428,15991,256,570,-68
-256,-383,15756,511,574,-72
-256,-418,16002,256,607,-72
-256,-401,15717,511,580,-86
-256,-405,15718,511,569,-78
-256,-419,15733,511,560,-79
-256,-385,15679,511,572,-106
-256,-405,15964,256,561,-84
-256,-389,15667,511,553,-78
-256,-392,15677,511,581,-87
-256,-373,15697,511,594,-72
-256,-406,15717,511,581,-64
-256,-392,15721,511,556,-86
-256,-376,15721,511,561,-83
-256,-409,15711,511,571,-65
-256,-382,15712,511,571,-76
-256,-385,15696,511,560,-72
-256,-411,15948,256,566,-82
-256,-412,15706,511,566,-85
-256,-357,15943,256,579,-68
-256,-369,15709,511,578,-60
-256,-393,15749,511,582,-58
-256,-393,15701,511,587,-69
-256,-432,15699,511,588,-68
-256,-410,15681,511,576,-77
-256,-384,15704,511,572,-76
-256,-402,15726,511,577,-75
-256,-402,15724,511,564,-79
-256,-381,15709,511,554,-69
-256,-338,15977,256,569,-75
-256,-340,16011,256,579,-89
-256,-396,15721,511,591,-79
-256,-417,15708,511,568,-88
-256,-397,15692,511,558,-90
-256,-365,15699,511,545,-79
-256,-389,15673,511,582,-85
-256,-431,15727,511,575,-89
-256,-407,15743,511,576,-86
-256,-446,15962,256,577,-74
-256,-401,15953,256,566,-59
-256,-391,15724,511,586,-79
-256,-420,15978,256,586,-68
-256,-410,15729,511,584,-79
-256,-415,15736,511,593,-69
-256,-414,15960,256,575,-68
-256,-368,15702,511,575,-86
-256,-393,15696,511,577,-70
-256,-374,15724,511,571,-80
-256,-378,15749,511,568,-72
-256,-352,15985,256,575,-78
-256,-404,15708,511,557,-82
-256,-383,15686,511,568,-87
-256,-389,15972,256,574,-92
-256,-409,15945,256,575,-82
-256,-404,15741,511,564,-66
-256,-431,15720,511,576,-73
-256,-410,15913,256,582,-84
-256,-415,15681,511,572,-84
-256,-397,15716,511,582,-77
-256,-405,15672,511,590,-71
-256,-377,15693,511,585,-67
-256,-395,15748,511,567,-70
-256,-419,15960,256,574,-90
-256,-455,15968,256,582,-87
-256,-451,15693,511,574,-83
-256,-391,15718,511,563,-81
-256,-372,15720,511,559,-77
-256,-402,15690,511,576,-70
-256,-387,15957,256,572,-69
-256,-398,15928,256,570,-79
-256,-375,15718,511,577,-80
-256,-420,15733,511,571,-68
-256,-430,15710,511,557,-70
-256,-406,15722,256,568,-70
-256,-398,15715,511,563,-55
-256,-379,15695,511,564,-75
-256,-373,16001,256,579,-81
-256,-400,15712,511,581,-83
-256,-389,15704,511,568,-87
-256,-408,15722,511,576,-76
-256,-454,15693,511,586,-73
-256,-414,15991,256,576,-78
-256,-424,15985,256,580,-70
-256,-421,15720,511,594,-78
-256,-425,15727,511,588,-80
-256,-414,15742,511,580,-82
-256,-378,15727,511,585,-84
-256,-381,15966,256,587,-68
-256,-365,15983,256,585,-70
-256,-357,15989,256,574,-84
-256,-358,15993,256,572,-74
-256,-372,15746,511,574,-75
-256,-388,15678,511,571,-78
-256,-391,15720,511,570,-77
-256,-426,15959,256,594,-86
-256,-438,15743,511,598,-85
-256,-355,15703,511,579,-78
-256,-387,15685,511,562,-87
-256,-431,15684,511,575,-58
-256,-422,15753,511,577,-69
-256,-426,15718,511,580,-79
-256,-438,15720,511,565,-86
-256,-382,15743,511,573,-76
-256,-422,15965,256,592,-80
-256,-391,15998,256,588,-98
-256,-444,15752,511,582,-88
-256,-418,15723,511,582,-63
-256,-374,15700,511,573,-75
-256,-394,15951,256,576,-84
-256,-426,15984,256,592,-73
-256,-378,15718,511,592,-74
-256,-386,15933,256,583,-74
-256,-377,15712,511,590,-79
-256,-413,15715,511,577,-78
-256,-402,15763,511,569,-81
-256,-384,15739,511,579,-100
-256,-361,16007,256,586,-97
-256,-376,15983,256,571,-84
-256,-392,15691,511,576,-89
-256,-385,15752,511,582,-77
-256,-375,15726,511,579,-66
-256,-376,15986,256,578,-78
-256,-399,15984,256,580,-78
-256,-382,15713,511,595,-64
-256,-387,15974,256,603,-77
-256,-399,15723,511,591,-87
-256,-415,15720,511,577,-73
-256,-427,15962,256,576,-65
-256,-391,15703,511,574,-62
-256,-399,15951,256,581,-67
-256,-413,15674,511,595,-66
-256,-397,15687,511,582,-70
-256,-365,15967,256,570,-75
-256,-388,15697,511,572,-74
-256,-403,15712,511,567,-79
-256,-407,15700,511,568,-66
-256,-411,15715,511,587,-86
-256,-434,15715,511,581,-80
-256,-381,15690,511,575,-65
-256,-448,15955,256,574,-57
-256,-413,15741,511,572,-75
-256,-423,15748,511,569,-88
-256,-407,15730,511,569,-71
-256,-444,15728,511,577,-73
-256,-434,15732,511,580,-84
-256,-415,15699,511,581,-84
-256,-420,15689,511,579,-77
-256,-352,15969,256,590,-85
-256,-424,15775,511,577,-78
-256,-432,16001,256,555,-66
-256,-395,15969,256,577,-81
-256,-376,15978,256,577,-92
-256,-366,15702,511,568,-110
-256,-357,15709,511,572,-97
-256,-398,16002,256,577,-88
-256,-445,15752,511,581,-78
-256,-426,15741,511,580,-77
-256,-385,15737,511,586,-61
-256,-384,15982,256,585,-49
-256,-367,15739,511,577,-62
-256,-371,15726,511,570,-77
-256,-356,15969,256,584,-78
-256,-409,15747,511,594,-71
-256,-355,15690,511,596,-81
-256,-400,15698,511,584,-65
-256,-410,15990,256,573,-72
-256,-402,15746,511,566,-81
-256,-405,15743,511,568,-71
-256,-415,15719,511,587,-74
-256,-391,15694,511,574,-83
-256,-375,15738,511,575,-59
-256,-357,15739,511,567,-71
-256,-349,15710,511,566,-90
-256,-376,15959,256,562,-71
-256,-379,15741,511,584,-74
-256,-394,16004,256,583,-72
-256,-415,15720,511,587,-58
-256,-408,15743,511,586,-62
-256,-401,16007,256,575,-74
-256,-398,15727,511,586,-84
-256,-370,15731,511,581,-82
-256,-390,15966,256,590,-82
-256,-404,15697,511,587,-80
-256,-378,15739,511,577,-78
-256,-371,15727,511,575,-83
-256,-360,15715,511,567,-80
-256,-398,15730,511,565,-70
-256,-374,15734,511,575,-72
-256,-401,16006,256,587,-61
-256,-431,15736,511,582,-82
-256,-414,15696,256,595,-78
-256,-429,15727,511,585,-84
-256,-410,15726,511,584,-96
-256,-385,15730,511,574,-90
-256,-406,15712,511,585,-88
-256,-455,15971,256,590,-75
-256,-405,15969,256,575,-82
-256,-390,15708,511,566,-62
-256,-373,15696,511,563,-62
-256,-349,15959,256,571,-65
-256,-378,16023,256,575,-66
-256,-389,15714,511,592,-71
-256,-375,15714,511,566,-76
-256,-363,15993,256,581,-68
-256,-409,15712,511,582,-66
-256,-418,15739,511,579,-79
-256,-420,15749,511,580,-84
-256,-413,15744,511,578,-78
-256,-416,15714,511,572,-66
-256,-392,15734,511,576,-71
-256,-385,15729,511,576,-65
-256,-360,15975,256,573,-76
-256,-394,15721,511,563,-83
-256,-399,15725,511,574,-75
-256,-391,16010,256,588,-74
-256,-391,15981,256,581,-70
-256,-444,15698,511,572,-72
-256,-421,15674,511,567,-71
-256,-406,15677,511,585,-65
-256,-412,15706,511,577,-72
-256,-432,15997,256,570,-81
-256,-390,15749,511,577,-66
-256,-407,15770,511,585,-88
-256,-410,15695,511,584,-72
-256,-417,15719,511,575,-71
-256,-362,15697,511,569,-70
-256,-395,15693,511,580,-63
-256,-430,15738,511,579,-67
-256,-385,15982,256,573,-68
-256,-407,15980,256,587,-75
-256,-394,15740,511,576,-74
-256,-379,15714,511,575,-93
-256,-384,15710,511,577,-82
-256,-448,15991,256,569,-66
-256,-397,15743,511,585,-73
-256,-389,15748,511,571,-69
-256,-376,15728,511,576,-60
-256,-396,15668,511,578,-65
-256,-401,15710,511,566,-86
-256,-385,15721,511,563,-71
-256,-359,15754,511,568,-71
-256,-376,15704,511,568,-81
-256,-396,15702,511,572,-79
-256,-393,15728,511,576,-83
-256,-372,15692,511,578,-60
-256,-388,15736,511,573,-57
-256,-440,15737,511,569,-60
-256,-394,15730,511,585,-74
-256,-389,15952,256,578,-78
-256,-386,15669,511,568,-90
-256,-365,15686,511,595,-77
-256,-416,15975,256,582,-63
-256,-424,15716,511,577,-59
-256,-415,15709,511,565,-69
-256,-360,15694,511,554,-64
-256,-353,15732,511,573,-83
-256,-358,15748,511,571,-90
-256,-384,15771,511,560,-105
-256,-379,15758,511,560,-80
-256,-363,15741,511,570,-77
-256,-402,15709,511,568,-78
-256,-409,15754,511,565,-73
-256,-415,15709,511,567,-71
-256,-384,15710,511,583,-83
-256,-369,15742,511,591,-67
-256,-420,15747,511,578,-94
-256,-407,15713,511,580,-86
-256,-412,15946,256,593,-85
-256,-408,15722,511,585,-70
-256,-406,15733,511,590,-69
-256,-416,15714,511,573,-68
-256,-393,15749,511,575,-71
-256,-395,15700,511,587,-87
-256,-362,15686,511,595,-74
-256,-363,15705,511,568,-69
-256,-367,15705,511,567,-70
-256,-411,15710,511,571,-63
-256,-387,15736,511,580,-77
-256,-430,15713,511,575,-89
-256,-382,15705,511,586,-71
-256,-406,15715,511,584,-73
-256,-407,15693,511,569,-68
-256,-390,15691,511,574,-76
-256,-428,15703,511,567,-85
-256,-409,15720,511,581,-62
-256,-386,15742,511,599,-85
-256,-425,15689,511,590,-88
-256,-390,15741,511,587,-69
-256,-379,15989,256,595,-82
-256,-422,15983,256,578,-85
-256,-374,15963,256,563,-89
-256,-391,15720,511,571,-79
-256,-382,15979,256,584,-81
-256,-363,15762,511,581,-98
-256,-386,15727,511,581,-86
-256,-409,15717,511,580,-80
-256,-404,15747,511,582,-73
-256,-390,15766,511,562,-79
-256,-413,15705,511,573,-76
-256,-442,15691,511,580,-77
-256,-412,15742,511,575,-77
-256,-408,15740,511,574,-90
-256,-420,15743,511,577,-94
-256,-373,15721,511,585,-88
-256,-386,15729,511,577,-82
-256,-394,15712,511,564,-76
-256,-428,15955,256,565,-70
-256,-424,15655,511,563,-66
-256,-433,15706,511,583,-68
-256,-454,15755,511,600,-59
-256,-435,15724,511,583,-84
-256,-390,15978,256,586,-72
-256,-348,15707,511,589,-66
-256,-369,15945,256,568,-77
-256,-348,15712,511,570,-88
-256,-376,15973,256,585,-91
-256,-439,15704,511,576,-79
-256,-430,15681,511,579,-76
-256,-391,15697,511,585,-73
-256,-436,15723,511,579,-78
-256,-370,15729,511,581,-78
-256,-397,15720,511,575,-80
-256,-368,15948,256,583,-82
-256,-362,15728,511,588,-80
-256,-368,15693,511,573,-98
-256,-358,15693,511,571,-85
-256,-379,15680,511,574,-72
-256,-355,15688,511,573,-82
-256,-352,15739,511,561,-80
-256,-370,15748,511,575,-66
-256,-357,16002,256,574,-71
-256,-345,15736,511,564,-51
-256,-364,15742,511,562,-52
-256,-360,15757,511,581,-72
-256,-414,15965,256,572,-82
-256,-390,15704,511,571,-68
-256,-366,15731,511,569,-82
-256,-398,15741,511,567,-62
-256,-387,15741,511,564,-66
-256,-403,15721,511,570,-68
-256,-403,15709,511,579,-83
-256,-397,15716,511,578,-81
-256,-344,15761,511,570,-71
-256,-404,15792,511,585,-81
-256,-413,15779,511,577,-68
-256,-403,16010,256,575,-66
-256,-372,15726,511,568,-96
-256,-400,15700,511,570,-80
-256,-392,15696,511,585,-78
-256,-374,15710,511,588,-81
-256,-385,15745,511,579,-82
-256,-396,15742,511,568,-93
-256,-396,15984,256,575,-86
-256,-385,15741,511,579,-80
-256,-375,15735,511,591,-62
-256,-397,15682,511,586,-68
-256,-400,15701,511,582,-72
-256,-404,15722,511,589,-66
-256,-399,15664,511,579,-86
-256,-410,15703,511,583,-85
-256,-418,15971,256,579,-76
-256,-420,15991,256,576,-70
-256,-353,15990,256,584,-69
-256,-352,16005,256,573,-78
-256,-371,16005,256,568,-81
-256,-369,15731,511,580,-71
-256,-396,15737,511,584,-63
-256,-377,15727,511,578,-66
-256,-375,15727,511,564,-76
-256,-387,15731,511,562,-61
-256,-407,15722,511,566,-53
-256,-401,15961,256,574,-70
-256,-409,15970,256,570,-72
-256,-421,15949,256,566,-88
-256,-418,15961,256,565,-87
-256,-365,15684,256,567,-64
-256,-368,15688,511,565,-77
-256,-415,15708,511,588,-88
-256,-356,15988,256,571,-72
-256,-369,15731,511,570,-78
-256,-389,15694,511,561,-85
-256,-400,15719,511,575,-64
-256,-397,15710,511,575,-69
-256,-411,15711,511,572,-81
-256,-431,15719,511,570,-77
-256,-409,15986,256,574,-70
-256,-379,16017,256,565,-72
-256,-385,15983,256,569,-66
-256,-426,15998,256,559,-62
-256,-397,15709,511,558,-64
-256,-395,15674,511,578,-81
-256,-412,15630,511,574,-78
-256,-385,15665,511,587,-95
-256,-401,15957,256,581,-87
-256,-404,15985,256,571,-70
-256,-412,15952,256,567,-71
-256,-407,15700,511,570,-77
-256,-400,15716,511,552,-70
-256,-390,15734,511,539,-66
-256,-412,15979,256,561,-60
-256,-424,15709,511,564,-99
-256,-417,15713,511,560,-93
-256,-369,15711,511,568,-80
-256,-419,15722,511,560,-73
-256,-406,15946,256,563,-73
-256,-415,15694,511,578,-82
-256,-419,15708,511,590,-77
-256,-375,15706,511,578,-72
-256,-411,15704,511,574,-85
-256,-409,15942,256,561,-86
-256,-359,15694,511,563,-73
-256,-393,15693,511,572,-74
-256,-413,15651,511,568,-88
-256,-408,15668,511,557,-98
-256,-374,15669,511,552,-79
-256,-365,15707,511,575,-83
-256,-415,15984,256,571,-95
-256,-399,15720,511,565,-86
-256,-388,16005,256,567,-75
-256,-370,15966,256,586,-69
-256,-418,15978,256,576,-72
-256,-415,15745,511,585,-70
-256,-396,15750,511,597,-66
-256,-398,15994,256,587,-74
-256,-392,15694,511,591,-70
-256,-355,15707,511,574,-75
-256,-392,15732,511,562,-83
-256,-413,15711,511,570,-79
-256,-396,15678,511,569,-66
-256,-415,15687,511,562,-79
-256,-411,15698,511,560,-90
-256,-371,15683,511,572,-93
-256,-361,15686,511,582,-79
-256,-396,15714,511,569,-79
-256,-389,15712,511,586,-74
-256,-369,15698,511,570,-78
-256,-379,15728,511,571,-76
-256,-377,15756,511,572,-71
-256,-388,15734,511,572,-68
-256,-393,15719,511,569,-91
-256,-368,15733,511,588,-84
-256,-378,15694,511,585,-68
-256,-395,15726,511,574,-54
-256,-397,15971,256,573,-55
-256,-427,15674,511,564,-53
-256,-430,15668,511,576,-83
-256,-423,15686,511,571,-94
-256,-449,15738,511,571,-92
-256,-399,15723,511,574,-94
-256,-370,15736,511,580,-91
-256,-389,15720,511,580,-87
-256,-436,15711,511,573,-67
-256,-391,15989,256,564,-63
-256,-351,15726,511,584,-65
-256,-375,15760,511,582,-80
-256,-371,15720,511,590,-81
-256,-421,15956,256,597,-73
-256,-436,15669,511,575,-65
-256,-389,15970,256,579,-76
-256,-390,15726,511,581,-87
-256,-387,15964,256,586,-67
-256,-378,15685,511,581,-75
-256,-419,15725,511,583,-75
-256,-438,15707,511,569,-90
-256,-398,15700,511,563,-80
-256,-420,15709,511,574,-82
-256,-390,15680,511,586,-93
-256,-410,15941,256,587,-89
-256,-390,15978,256,585,-90
-256,-388,15735,511,566,-70
-256,-399,15753,511,565,-55
-256,-413,15720,511,561,-56
-256,-365,15946,256,571,-68
-256,-399,15699,511,571,-84
-256,-381,15976,256,574,-70
-256,-349,15737,511,571,-88
-256,-353,15754,511,586,-66
-256,-344,15753,511,583,-79
-256,-376,15761,511,583,-76
-256,-402,15749,511,584,-73
-256,-412,15710,511,588,-68
-256,-391,16008,256,587,-68
-256,-396,15991,256,581,-83
-256,-391,15718,511,576,-89
-256,-388,15973,256,563,-82
-256,-423,15998,256,566,-93
-256,-401,15965,256,558,-86
-256,-410,15721,511,560,-72
-256,-405,15693,511,565,-60
-256,-413,15718,511,560,-69
-256,-428,15710,511,573,-70
-256,-384,16014,256,581,-91
-256,-381,15726,511,578,-85
-256,-380,15712,511,578,-74
-256,-392,15720,511,577,-63
-256,-386,15715,511,572,-64
-256,-414,15981,256,582,-65
-256,-419,15731,511,583,-71
-256,-427,15712,511,580,-80
-256,-412,15700,511,570,-97
-256,-392,15692,511,575,-78
-256,-400,15731,511,572,-72
-256,-416,15737,511,554,-76
-256,-390,15751,511,561,-63
-256,-364,15714,511,570,-82
-256,-347,15724,511,567,-86
-256,-375,15710,511,580,-81
-256,-345,15733,511,571,-95
-256,-397,15981,256,575,-85
-256,-377,15719,511,570,-84
-256,-365,15707,511,571,-89
-256,-393,15945,256,572,-78
-256,-384,15949,256,578,-78
-256,-380,15954,256,569,-81
-256,-450,15715,511,576,-80
-256,-379,15755,511,584,-75
-256,-427,15994,256,579,-86
-256,-426,15744,511,567,-94
-256,-421,15771,511,571,-92
-256,-383,15746,511,581,-90
-256,-390,15693,511,577,-97
-256,-381,15733,511,569,-87
-256,-375,15754,511,572,-78
-256,-395,15952,256,563,-91
-256,-411,15702,511,566,-98
-256,-444,15979,256,571,-92
-256,-395,15745,511,577,-89
-256,-391,15729,511,578,-80
-256,-412,15733,511,577,-83
-256,-382,15699,511,582,-84
-256,-398,15711,511,582,-95
-256,-400,15722,511,583,-88
-256,-383,15735,511,560,-54
-256,-379,15693,511,559,-57
-256,-361,15676,511,577,-80
-256,-361,15692,511,573,-88
-256,-397,15729,511,582,-81
-256,-397,15729,511,579,-71
-256,-410,15736,511,569,-74
-256,-401,15740,511,571,-79
-256,-392,15714,511,571,-82
-256,-391,15689,511,578,-78
-256,-433,15682,511,583,-85
-256,-453,15687,511,567,-73
-256,-368,15953,256,570,-67
-256,-378,15990,256,573,-83
-256,-386,15979,256,581,-73
-256,-386,15705,511,555,-78
-256,-385,15739,511,569,-76
-256,-391,15763,511,560,-69
-256,-401,15740,511,565,-51
-256,-379,16005,256,574,-67
-256,-389,15947,256,573,-74
-256,-386,15959,256,564,-74
-256,-385,15977,256,569,-84
-256,-378,15976,256,587,-78
-256,-376,15739,511,584,-71
-256,-376,15669,511,587,-80
-256,-377,15951,256,587,-65
-256,-387,15683,511,575,-63
-256,-416,15977,256,586,-71
-256,-380,15972,256,581,-86
-256,-419,15740,511,577,-74
-256,-382,15958,256,565,-92
-256,-373,15738,511,579,-84
-256,-389,15717,511,599,-81
-256,-416,15707,511,585,-74
-256,-377,15985,256,574,-67
-256,-378,15730,511,577,-78
-256,-371,15684,511,578,-79
-256,-354,15678,511,596,-80
-256,-393,15685,511,578,-78
-256,-409,15664,511,579,-72
-256,-420,15679,511,577,-83
-256,-441,15953,256,574,-84
-256,-436,15752,511,573,-84
-256,-436,15766,511,581,-88
-256,-446,15740,511,594,-81
-256,-441,15719,511,581,-59
-256,-464,15727,511,571,-71
-256,-451,15749,511,572,-70
-256,-419,15970,256,566,-69
-256,-396,15973,256,580,-73
-256,-378,15984,256,578,-67
-256,-367,16000,256,573,-68
-256,-376,15736,511,580,-76
-256,-421,15733,511,578,-82
-256,-408,15737,511,589,-88
-256,-439,15721,511,593,-75
-256,-421,15705,511,564,-87
-256,-407,15728,511,581,-95
-256,-378,15693,511,584,-76
-256,-428,15751,511,574,-63
-256,-407,15691,511,577,-72
-256,-394,15708,511,572,-69
-256,-403,15719,511,581,-85
-256,-412,15686,511,582,-72
-256,-396,15721,511,569,-73
-256,-409,15707,511,572,-77
-256,-381,15683,511,587,-72
-256,-347,15655,511,592,-60
-256,-367,15913,256,578,-68
-256,-410,15973,256,573,-84
-256,-399,15711,511,554,-71
-256,-430,15708,511,555,-80
-256,-395,15696,511,573,-91
-256,-395,15690,511,578,-76
-256,-357,15696,511,565,-87
-256,-362,15734,511,580,-102
-256,-395,15751,511,586,-85
-256,-417,15941,256,581,-60
-256,-395,15719,511,570,-59
-256,-406,15967,256,569,-69
-256,-385,15743,511,579,-67
-256,-374,15676,511,576,-64
-256,-397,15654,511,570,-86
-256,-367,15676,511,580,-66
-256,-353,15711,511,591,-61
-256,-384,15976,256,574,-67
-256,-427,15715,511,577,-69
-256,-409,15693,511,591,-57
-256,-441,15701,511,583,-53
-256,-390,15735,511,588,-59
-256,-395,15702,511,568,-79
-256,-363,15730,511,569,-82
-256,-405,15708,511,573,-85
-256,-428,15983,256,578,-76
-256,-449,15713,511,577,-79
-256,-387,15723,511,564,-70
-256,-368,15684,511,570,-84
-256,-399,15951,256,577,-86
-256,-364,15750,511,578,-88
-256,-400,15720,511,578,-82
-256,-399,15719,511,562,-86
-256,-382,15726,511,575,-70
-256,-404,15747,511,586,-86
-256,-442,15973,256,572,-93
-256,-459,15717,511,578,-87
-256,-446,15952,256,576,-68
-256,-419,15957,256,564,-63
-256,-412,15748,511,550,-65
-256,-410,15782,511,567,-76
-256,-462,15725,511,580,-71
-256,-424,15974,256,585,-74
-256,-393,15668,511,571,-76
-256,-375,15688,511,569,-67
-256,-387,15700,511,575,-68
-256,-420,15771,511,580,-62
-256,-402,15765,511,579,-59
-256,-351,15726,511,574,-60
-256,-385,15723,511,573,-59
-256,-392,15941,256,577,-61
-256,-412,15698,511,572,-74
-256,-397,15993,256,575,-75
-256,-412,15700,511,572,-80
-256,-401,15715,511,556,-81
-256,-404,15705,511,566,-75
-256,-408,15707,511,565,-93
-256,-415,15912,256,557,-78
-256,-410,15721,511,572,-80
-256,-375,15737,511,581,-84
-256,-395,15956,256,577,-80
-256,-433,15679,511,584,-90
-256,-416,15714,511,579,-79
-256,-431,15681,511,574,-67
-256,-419,15726,511,563,-68
-256,-417,15696,511,571,-72
-256,-414,15708,511,579,-92
-256,-399,15720,511,573,-88
-256,-371,15675,511,566,-87
-256,-392,15690,511,576,-76
-256,-408,15723,511,574,-76
-256,-387,15727,511,568,-81
-256,-391,15739,511,568,-80
-256,-360,15725,511,570,-79
-256,-385,15730,511,576,-70
-256,-393,15719,511,561,-73
-256,-372,15701,511,563,-86
-256,-412,15705,511,569,-81
-256,-395,15700,511,575,-74
-256,-388,15952,256,584,-89
-256,-337,15681,511,596,-79
-256,-407,15957,256,582,-70
-256,-376,15740,511,597,-70
-256,-370,15754,511,585,-72
-256,-360,15738,511,582,-78
-256,-405,15706,511,591,-75
-256,-420,15958,256,577,-86
-256,-384,15693,511,576,-80
-256,-386,15722,511,585,-81
-256,-389,15766,511,591,-78
-256,-394,15734,511,585,-79
-256,-389,15958,256,572,-87
-256,-394,15978,256,571,-86
-256,-408,15984,256,570,-88
-256,-397,15949,256,573,-94
-256,-431,15692,511,590,-89
-256,-419,15690,511,581,-79
-256,-393,15691,511,582,-62
-256,-395,15711,511,573,-81
-256,-427,15735,511,571,-77
-256,-399,15687,511,581,-71
-256,-411,15963,256,568,-71
-256,-390,15960,256,562,-76
-256,-411,15671,511,566,-73
-256,-404,15650,511,566,-59
-256,-386,15695,511,568,-64
-256,-395,15740,511,582,-78
-256,-401,15697,511,574,-78
-256,-403,15677,511,577,-92
-256,-376,15655,511,588,-76
-256,-415,15716,511,587,-74
-256,-395,15743,511,575,-65
-256,-388,15708,511,581,-58
-256,-383,15725,511,569,-63
-256,-346,15938,256,571,-65
-256,-355,15686,511,589,-63
-256,-383,16026,256,573,-67
-256,-371,15733,511,592,-72
-256,-393,15721,511,565,-79
-256,-380,15742,511,561,-76
-256,-358,15976,256,585,-73
-256,-382,15709,511,573,-83
-256,-403,15971,256,595,-85
-256,-385,15972,256,596,-97
-256,-388,15735,511,580,-85
-256,-402,15732,511,594,-74
-256,-371,15735,511,577,-67
-256,-387,15725,511,578,-67
-256,-424,16006,256,584,-95
-256,-409,15718,511,572,-93
-256,-394,15694,511,579,-66
-256,-388,15707,511,576,-76
-256,-391,15669,511,588,-83
-256,-391,15692,511,579,-70
-256,-383,15691,511,560,-73
-256,-420,15668,511,555,-71
-256,-430,15696,511,575,-66
-256,-394,15742,511,577,-88
-256,-377,15998,256,582,-104
-256,-378,15721,511,581,-71
-256,-388,15710,511,576,-70
-256,-388,15697,511,583,-77
-256,-334,15960,256,583,-88
-256,-374,15968,256,577,-81
-256,-398,16011,256,586,-96
-256,-383,15761,511,577,-94
-256,-364,15717,511,567,-80
-256,-381,15676,511,578,-90
-256,-393,15691,511,586,-83
-256,-363,15718,511,594,-72
-256,-376,15728,511,578,-89
-256,-403,15724,511,579,-93
-256,-393,15741,511,592,-81
-256,-438,15729,511,593,-82
-256,-393,15731,511,590,-89
-256,-375,15997,256,572,-85
-256,-337,15743,511,572,-82
-256,-381,15738,511,583,-96
-256,-372,15710,511,571,-78
-256,-363,15719,511,578,-71
-256,-391,15735,511,583,-77
-256,-396,15681,511,579,-86
-256,-392,15698,511,595,-88
-256,-387,15729,511,596,-71
-256,-360,15772,511,584,-79
-256,-342,15767,511,569,-81
-256,-395,15738,511,577,-88
-256,-430,15697,511,582,-80
-256,-392,15731,511,564,-72
-256,-416,15727,511,584,-76
-256,-424,15988,256,579,-81
-256,-369,15967,256,571,-68
-256,-402,15704,511,575,-56
-256,-406,15674,511,573,-75
-256,-424,15904,256,568,-90
-256,-423,15696,511,581,-80
-1,-403,15722,511,582,-71
-256,-390,15738,511,570,-75
-256,-385,15707,511,551,-75
-256,-375,15694,511,570,-59
-256,-426,15990,256,581,-66
-256,-421,15716,511,596,-62
-256,-438,15709,511,593,-60
-256,-409,15988,256,577,-84
-256,-358,15722,511,577,-73
-256,-371,15725,511,566,-69
-256,-402,15738,511,584,-86
-256,-426,15714,511,581,-80
-256,-401,15729,511,572,-69
-256,-356,15728,511,565,-66
-256,-395,15706,511,568,-64
-256,-379,15699,511,567,-66
-256,-370,15963,256,576,-65
-256,-363,15735,511,569,-70
-256,-365,15718,511,572,-66
-256,-416,15667,511,581,-65
-256,-405,15922,256,583,-71
-256,-405,15705,511,586,-71
-256,-444,15727,511,592,-87
-256,-414,15700,511,588,-72
-256,-424,15966,256,590,-70
-256,-396,15980,256,583,-61
-256,-414,15731,511,581,-74
-256,-380,15755,511,580,-81
-256,-373,15730,511,566,-82
-256,-404,15720,511,585,-76
-256,-441,15709,511,589,-76
-256,-436,15955,256,571,-86
-256,-361,15714,511,572,-77
-256,-374,15689,511,571,-68
-256,-353,15989,256,580,-82
-256,-419,15970,256,592,-91
-256,-423,15898,256,577,-76
-256,-468,15687,511,571,-79
-256,-391,15686,511,570,-90
-256,-422,15723,511,574,-83
-256,-420,15981,256,574,-75
-256,-382,15650,511,566,-71
-256,-419,15934,256,564,-64
-256,-406,15688,511,569,-77
-256,-390,15712,511,575,-81
-256,-420,15670,511,583,-64
-256,-398,15684,511,578,-71
-256,-396,15648,511,571,-76
-256,-390,15706,511,576,-78
-256,-403,15691,511,582,-70
-256,-437,15700,511,576,-72
-256,-410,15725,511,565,-75
-256,-408,15714,511,571,-63
-256,-384,15708,511,571,-61
-256,-394,15708,511,576,-66
-256,-399,15988,256,576,-64
-256,-375,15738,511,580,-61
-256,-353,15742,511,568,-64
-256,-414,15749,511,571,-74
-256,-409,15750,511,575,-88
-256,-399,15740,511,581,-78
-256,-397,15971,256,578,-75
-256,-377,15691,511,567,-92
-256,-369,15742,511,579,-76
-256,-411,15742,511,584,-82
-256,-396,15982,256,589,-85
-256,-390,15978,256,591,-77
-256,-378,15742,511,578,-73
-256,-383,15704,511,577,-64
-256,-380,15991,256,585,-69
-256,-366,15995,256,592,-76
-256,-396,15994,256,586,-74
-256,-356,15711,511,590,-78
-256,-416,15664,511,570,-82
-256,-433,15969,256,587,-76
-256,-387,15720,511,583,-80
-256,-387,15716,511,574,-70
-256,-419,15971,256,570,-75
-256,-424,15737,511,567,-67
-256,-422,15975,256,584,-54
-256,-405,15718,511,574,-77
-256,-383,15740,511,551,-80
-256,-392,16029,256,563,-79
-256,-397,15707,511,577,-88
-256,-445,15720,511,578,-88
-256,-403,15719,511,582,-60
-256,-416,15694,511,591,-70
-256,-394,15683,511,586,-84
-256,-383,15708,511,580,-88
-256,-385,15748,511,579,-92
-256,-382,15738,511,578,-92
-256,-410,15996,256,585,-80
-256,-391,16044,256,562,-83
-256,-396,15777,511,566,-70
-256,-390,15997,256,565,-80
-256,-403,15996,256,591,-75
-256,-382,15702,511,582,-72
-256,-351,15729,511,585,-92
-256,-350,15712,511,579,-72
-256,-376,15703,511,584,-80
-256,-367,15726,511,590,-86
-256,-391,15720,511,574,-77
-256,-380,15718,511,566,-69
-256,-378,15967,256,582,-68
-256,-421,15945,256,583,-61
-256,-428,15689,511,575,-71
-256,-363,15714,511,568,-81
-256,-384,15719,511,566,-83
-256,-370,15968,256,579,-91
-256,-404,15944,256,582,-91
-256,-428,15713,511,582,-98
-256,-404,15728,511,594,-90
-256,-383,15716,511,579,-84
-256,-402,15730,511,572,-79
-256,-396,15715,511,574,-67
-256,-390,15730,511,572,-70
-256,-418,15696,511,586,-71
-256,-403,15714,511,569,-77
-256,-426,15718,511,571,-74
-256,-408,15710,511,578,-74
-256,-393,15707,511,587,-85
-256,-389,15718,511,585,-67
-256,-407,15708,511,575,-60
-256,-375,15702,511,572,-70
-256,-406,15715,511,575,-72
-256,-433,15715,511,578,-72
-256,-405,15972,256,585,-65
-256,-386,15721,511,580,-81
-256,-384,15684,511,578,-84
-256,-352,15714,511,568,-70
-256,-394,15749,511,550,-87
-256,-418,15748,511,557,-81
-256,-415,16013,256,576,-62
-256,-419,15704,511,576,-75
-256,-392,15703,511,581,-84
-256,-388,15718,511,596,-59
-256,-389,15974,256,597,-62
-256,-372,15951,256,592,-71
-256,-405,15742,511,566,-77
-256,-393,15987,256,574,-79
-256,-388,15972,256,587,-77
-256,-362,15718,511,586,-91
-256,-372,15727,511,580,-86
-256,-386,15743,511,578,-81
-256,-420,15678,511,570,-92
-256,-442,15697,511,573,-87
-256,-424,15982,256,573,-80
-256,-402,15743,511,577,-84
-256,-420,15969,256,578,-79
-256,-404,15706,511,578,-76
-256,-399,15686,256,578,-93
-256,-412,15715,511,572,-86
-256,-414,15719,511,570,-82
-256,-394,15928,256,579,-52
-256,-405,15964,256,582,-80
-256,-399,15977,256,556,-88
-256,-357,15981,256,551,-70
-256,-387,15961,256,557,-70
-256,-396,15742,511,568,-72
-256,-408,15715,511,557,-71
-256,-375,15739,511,574,-78
-256,-402,15730,511,599,-66
-256,-415,15984,256,573,-62
-256,-376,15963,256,575,-72
-256,-351,15712,511,587,-91
-256,-367,15992,256,567,-88
-256,-409,15951,256,558,-94
-256,-405,15963,256,562,-85
-256,-369,15969,256,577,-74
-256,-395,15957,256,576,-89
-256,-390,15748,511,576,-86
-256,-379,15784,511,594,-77
-256,-374,15744,511,590,-80
-256,-382,15727,511,578,-57
-256,-359,15709,511,577,-73
-256,-414,15691,511,583,-67
-256,-415,15707,511,587,-92
-256,-381,15766,511,588,-94
-256,-383,15749,511,577,-89
-256,-405,15708,511,567,-89
-256,-421,15967,256,579,-80
-256,-431,15717,511,583,-85
-256,-418,15714,511,578,-91
-256,-380,15684,511,584,-94
-256,-365,15992,256,579,-95
-256,-400,15699,511,580,-60
-256,-391,15719,511,574,-53
-256,-357,15716,511,580,-72
-256,-361,15716,511,593,-67
-256,-375,15724,511,581,-75
-256,-370,15726,511,588,-81
-256,-395,15938,256,583,-64
-256,-403,15693,511,579,-68
-256,-391,15759,511,571,-81
-256,-355,15991,256,577,-84
-256,-363,15744,511,589,-77
-256,-408,15740,511,587,-65
-256,-427,15710,511,581,-81
-256,-436,15752,511,576,-69
-256,-403,15740,511,574,-86
-256,-396,15697,511,576,-103
-256,-382,15701,511,582,-88
-256,-441,15952,256,577,-91
-256,-436,15707,511,573,-85
-256,-422,15729,511,571,-94
-256,-406,15759,511,568,-82
-256,-390,15753,511,562,-72
-256,-430,15988,256,559,-75
-256,-435,15740,511,563,-77
-256,-421,15729,511,570,-89
-256,-406,15713,511,580,-65
-256,-398,15698,511,578,-57
-256,-363,15673,511,571,-66
-256,-365,15655,511,573,-64
-256,-411,15737,511,584,-53
-256,-405,15743,511,589,-64
-256,-433,15678,511,587,-75
-256,-458,15973,256,579,-73
-256,-419,15700,511,574,-63
-256,-455,15668,511,572,-76
-256,-434,15691,511,574,-72
-256,-437,15748,511,586,-75
-256,-385,15744,511,583,-81
-256,-358,15729,511,588,-76
-256,-400,15694,511,587,-52
-256,-395,15729,511,577,-68
-256,-437,15730,511,575,-74
-256,-413,15752,511,568,-72
-256,-449,15978,256,581,-82
-256,-396,15694,511,579,-84
-256,-396,15690,511,572,-80
-256,-428,15703,511,566,-86
-256,-388,15723,511,560,-76
-256,-352,15996,256,571,-62
-256,-363,15742,511,581,-82
-256,-365,15706,511,599,-74
-256,-361,15712,511,594,-59
-256,-397,15966,256,581,-62
-256,-376,15712,511,574,-75
-256,-340,15727,511,599,-65
-256,-380,15980,256,587,-75
-256,-397,15713,511,578,-74
-256,-398,15715,511,579,-71
-256,-393,15673,511,578,-67
-256,-395,15661,511,585,-80
-256,-407,15745,511,581,-79
-256,-384,15996,256,579,-81
-256,-415,15722,511,588,-85
-256,-390,15701,511,581,-78
-256,-381,15713,511,564,-88
-256,-359,15987,256,579,-87
-256,-375,15964,256,583,-81
-256,-388,15978,256,572,-81
-256,-437,15967,256,558,-70
-256,-453,15711,511,570,-60
-256,-368,15728,511,574,-95
-256,-402,15701,511,585,-105
-256,-385,15743,511,580,-76
-256,-406,15726,511,571,-79
-256,-410,15750,511,576,-77
-256,-397,15746,256,590,-76
-256,-420,15720,511,584,-59
-256,-428,15698,511,577,-58
-256,-391,15711,511,567,-90
-256,-389,15737,511,577,-90
-256,-424,15791,511,579,-83
-256,-407,15716,511,581,-72
-256,-377,15701,511,578,-75
-256,-394,15972,256,582,-78
-256,-422,15967,256,589,-98
-256,-400,15721,511,572,-93
-256,-368,15985,256,567,-71
-256,-397,15755,511,598,-80
-256,-408,15728,511,577,-90
-256,-373,16014,256,563,-91
-256,-382,15704,511,562,-74
-256,-411,15703,511,565,-85
-256,-372,16007,256,573,-87
-256,-408,15733,511,568,-71
-256,-409,15734,511,565,-69
-256,-387,15726,511,580,-87
-256,-378,15940,256,576,-86
-256,-398,15981,256,577,-73
-256,-405,16003,256,582,-86
-256,-385,15670,511,571,-106
-256,-398,15949,256,572,-101
-256,-418,15992,256,572,-75
-256,-405,15959,256,570,-67
-256,-396,15677,511,569,-53
-256,-389,15724,511,577,-66
-256,-395,15709,511,585,-79
-256,-391,15690,511,588,-67
-256,-407,15951,256,592,-61
-256,-395,15979,256,584,-70
-256,-380,15989,256,556,-78
-256,-357,16038,256,578,-83
-256,-398,15733,511,580,-80
-256,-395,15739,511,566,-76
-256,-382,15957,256,567,-67
-256,-380,15695,511,574,-79
-256,-394,15975,256,584,-72
-256,-404,16012,256,585,-70
-256,-394,16005,256,585,-75
-256,-383,15713,511,596,-70
-256,-397,15695,511,583,-66
-256,-404,15716,511,564,-72
-256,-432,15731,511,573,-88
-256,-455,15989,256,582,-71
-256,-393,15754,511,585,-59
-256,-364,15734,511,577,-71
-256,-371,15710,511,582,-55
-256,-412,15696,511,580,-70
-256,-391,15930,256,568,-73
-256,-420,15728,511,573,-89
-256,-417,15709,511,578,-83
-256,-424,15691,511,582,-76
-256,-393,15666,511,584,-79
-256,-410,15691,511,567,-78
-256,-431,15730,511,584,-64
-256,-403,15731,511,584,-71
-256,-394,15690,511,578,-75
-256,-364,15682,511,578,-81
-256,-381,15714,511,577,-73
-256,-357,15709,511,581,-63
-256,-381,15679,511,575,-64
-256,-333,15683,511,574,-61
-256,-404,15665,511,559,-73
-256,-387,15670,511,554,-70
-256,-352,15692,511,553,-90
-256,-381,15986,256,560,-86
-256,-406,15973,256,583,-81
-256,-420,15709,511,588,-77
-256,-380,15956,256,582,-81
-256,-400,15728,511,574,-89
-256,-423,15731,511,587,-95
-256,-434,15742,511,593,-78
-256,-377,15718,256,572,-74
-256,-388,15715,511,567,-82
-256,-371,15707,511,578,-80
-256,-390,15737,511,569,-63
-256,-383,15743,511,574,-80
-256,-414,15750,511,584,-68
-256,-413,15733,511,574,-72
-256,-415,15970,256,561,-85
-256,-390,15938,256,560,-74
-256,-388,15655,511,563,-81
-256,-390,15680,511,566,-70
-256,-402,15721,511,578,-81
-256,-402,15754,511,587,-82
-256,-438,15764,511,572,-86
-256,-423,15732,511,570,-89
-256,-412,15940,256,576,-82
-256,-409,15974,256,579,-75
-256,-408,15968,256,593,-75
-256,-390,15673,511,576,-71
-256,-375,16004,256,566,-88
-256,-338,15751,511,576,-79
-256,-355,15720,511,578,-69
-256,-356,15735,511,587,-80
-256,-385,15674,511,590,-76
-256,-439,15700,511,581,-83
-256,-445,15661,511,585,-88
-256,-418,15976,256,583,-78
-256,-406,16021,256,592,-88
-256,-382,15710,511,592,-85
-256,-424,15701,511,594,-67
-256,-409,15674,511,578,-73
-256,-393,15713,511,561,-93
-256,-404,15717,511,563,-72
-256,-387,15729,511,567,-68
-256,-393,15970,256,585,-79
-256,-401,15685,511,585,-96
-256,-400,15730,511,569,-89
-256,-433,15729,511,573,-86
-256,-419,15988,256,571,-82
-256,-414,15754,511,565,-78
-256,-437,15740,511,582,-78
-256,-417,15705,511,581,-73
-256,-419,15713,511,569,-74
-256,-414,15690,511,572,-72
-256,-419,15697,511,575,-68
-256,-408,15755,511,578,-67
-256,-381,16026,256,589,-68
-256,-381,15995,256,577,-73
-256,-413,15694,511,566,-70
-256,-416,15708,511,570,-86
-256,-447,15681,511,581,-94
-256,-399,15718,511,574,-90
-256,-415,15709,511,564,-68
-256,-393,15991,256,584,-60
-256,-376,15981,256,575,-53
-256,-346,15964,256,572,-82
-256,-371,15699,511,571,-71
-256,-378,15683,511,583,-64
-256,-340,15721,511,574,-85
-256,-390,15970,256,570,-76
-256,-388,15715,511,564,-86
-256,-390,15955,256,570,-85
-256,-386,15937,256,586,-86
-256,-396,15726,511,592,-84
-256,-413,16016,256,576,-91
-256,-398,15748,511,577,-82
-256,-400,15773,511,576,-83
-256,-425,15987,256,580,-75
-256,-349,15715,511,562,-81
-256,-375,15720,511,575,-73
-256,-395,15714,511,568,-55
-256,-361,15724,511,548,-65
-256,-434,15740,511,562,-70
-256,-416,15753,511,570,-68
-256,-404,15716,511,567,-85
-256,-431,15682,511,577,-92
-256,-422,15687,511,585,-70
-256,-462,15654,511,581,-81
-256,-432,15704,511,590,-55
-256,-392,15691,511,582,-62
-256,-367,15961,256,564,-76
-256,-373,15973,256,566,-78
-256,-371,15973,256,578,-84
-256,-393,15701,511,571,-85
-256,-390,15665,511,568,-81
-256,-367,15905,256,563,-84
-256,-415,15675,511,575,-93
-256,-406,15665,511,574,-82
-256,-387,15927,256,569,-75
-256,-392,15686,511,569,-64
-256,-398,15749,511,564,-75
-256,-384,15759,511,570,-73
-256,-392,15708,511,585,-65
-256,-395,15969,256,574,-76
-256,-400,15699,511,577,-82
-256,-364,15703,511,560,-97
-256,-403,15983,256,555,-83
-256,-417,15970,256,551,-61
-256,-375,15720,511,562,-64
-256,-440,15695,511,579,-75
-256,-404,15685,511,573,-89
-256,-395,15710,511,584,-73
-256,-427,15953,256,575,-70
-256,-443,15982,256,584,-60
-256,-439,15770,511,585,-73
-256,-416,15974,256,576,-78
-256,-404,15988,256,589,-57
-256,-413,15735,511,590,-71
-256,-371,15741,511,572,-79
-256,-378,15742,511,584,-66
-256,-374,15763,511,574,-56
-256,-368,15747,511,580,-61
-256,-432,15983,256,586,-72
-256,-421,15735,511,587,-92
-256,-423,15722,511,582,-81
-256,-403,15681,511,563,-70
-256,-420,15757,511,568,-78
-256,-385,15755,511,572,-81
-256,-385,15741,511,575,-78
-256,-410,15736,511,582,-70
-256,-399,15712,511,578,-67
-256,-404,15758,511,569,-71
-256,-387,15772,511,566,-71
-256,-359,15975,256,577,-72
-256,-361,15694,511,569,-75
-256,-434,15685,511,576,-97
-256,-400,15730,511,584,-82
-256,-405,15723,511,576,-70
-256,-412,15751,511,573,-69
-256,-442,15752,511,570,-81
-256,-408,15969,256,577,-73
-256,-383,15776,511,587,-86
-256,-392,15756,511,599,-86
-256,-379,15723,511,577,-90
-256,-376,15703,511,582,-81
-256,-398,15719,511,593,-84
-256,-377,15721,511,580,-75
-256,-393,15690,511,583,-64
-256,-369,15719,511,576,-69
-256,-440,15697,511,572,-66
-256,-418,15730,511,565,-68
-256,-411,15721,511,575,-63
-256,-405,15729,511,586,-61
-256,-403,15712,511,577,-67
-256,-408,15689,511,566,-72
-256,-402,15968,256,580,-74
-256,-378,15991,256,590,-70
-256,-392,15712,511,577,-79
-256,-406,15692,511,589,-80
-256,-408,15702,511,570,-66
-256,-376,15692,511,571,-79
-256,-397,15696,511,568,-80
-256,-402,15735,511,561,-90
-256,-365,15734,511,560,-92
-256,-410,15717,511,569,-84
-256,-427,15733,511,566,-84
-256,-447,15741,511,571,-94
-256,-428,15719,511,559,-54
-256,-384,15736,511,579,-66
-256,-397,15724,511,588,-81
-256,-398,15733,511,593,-58
-256,-414,15713,511,603,-65
-256,-399,15691,511,585,-77
-256,-401,15695,511,562,-77
-256,-410,15711,511,564,-63
-256,-413,15732,511,560,-76
-256,-362,15741,511,565,-84
-256,-380,15708,511,567,-71
-256,-372,15725,511,565,-52
-256,-391,15699,511,571,-63
-256,-403,15689,511,578,-80
-256,-436,15676,511,567,-86
-256,-369,15728,511,572,-74
-256,-380,15702,511,575,-71
-256,-384,15956,256,578,-72
-256,-416,15996,256,573,-79
-256,-400,15986,256,579,-83
-256,-386,15705,511,575,-90
-256,-387,15754,511,574,-85
-256,-389,15747,511,571,-75
-256,-433,15973,256,568,-76
-256,-406,15750,511,574,-81
-256,-399,15730,511,575,-80
-256,-416,15717,511,558,-77
-256,-393,15723,511,565,-75
-256,-410,15731,511,569,-83
-256,-428,15727,511,585,-81
-256,-416,15705,511,587,-79
-256,-411,15739,511,594,-76
-256,-402,15723,511,591,-71
-256,-391,15723,511,591,-66
-256,-411,15729,511,589,-60
-256,-424,15745,511,574,-69
-256,-412,15772,511,572,-73
-256,-360,15962,256,558,-82
-256,-425,15738,511,534,-72
-256,-434,15723,511,551,-57
-256,-390,15702,511,567,-60
-256,-410,15729,511,573,-67
-256,-433,15696,511,586,-66
-256,-409,15745,511,572,-88
-256,-385,15748,511,568,-76
-256,-396,15724,511,579,-88
-256,-431,15695,511,586,-96
-256,-438,15684,511,569,-80
-256,-411,15686,511,570,-84
-256,-425,15685,511,572,-77
-256,-414,15714,511,577,-76
-256,-385,15959,256,589,-87
-256,-412,15709,511,580,-85
-256,-416,15725,511,573,-73
-256,-423,15708,511,580,-80
-256,-395,15740,511,570,-84
-256,-362,15709,511,581,-83
-256,-386,15708,511,577,-67
-256,-379,15711,511,564,-71
-256,-429,15735,511,571,-82
-256,-436,15980,256,580,-83
-256,-402,15966,256,589,-81
-256,-356,15741,511,571,-83
-256,-332,15696,511,584,-74
-256,-381,15708,511,579,-79
-256,-388,15737,511,578,-69
-256,-390,15740,511,568,-77
-256,-405,15992,256,567,-60
-256,-380,15715,511,577,-66
-256,-389,15741,511,580,-94
-256,-367,15758,511,584,-80
-256,-395,15709,511,581,-66
-256,-386,15948,256,592,-71
-256,-391,15692,511,563,-68
-256,-402,15706,511,571,-80
-256,-407,15997,256,581,-71
-256,-407,15969,256,581,-72
-256,-391,15734,511,572,-74
-256,-372,15720,511,586,-68
-256,-383,15953,256,582,-66
-256,-342,15699,511,574,-84
-256,-370,15707,511,577,-92
-256,-401,15689,511,583,-97
-256,-376,15706,511,595,-83
-256,-431,15725,511,592,-70
-256,-396,15737,511,593,-76
-256,-405,15695,511,576,-64
-256,-412,15677,511,568,-64
-256,-427,15701,511,559,-67
-256,-413,15658,511,564,-74
-256,-427,15909,256,579,-75
-256,-374,15706,511,579,-72
-256,-414,15983,256,578,-52
-256,-414,15978,256,561,-67
-256,-422,15710,511,574,-76
-256,-394,15961,256,573,-81
-256,-380,15718,511,580,-87
-256,-370,15743,511,571,-66
-256,-393,15703,511,573,-69
-256,-374,15768,511,581,-78
-256,-408,15722,511,569,-72
-256,-423,15695,511,567,-87
-256,-409,15723,511,563,-87
-256,-396,15712,511,562,-68
-256,-395,15717,511,564,-66
-256,-415,15702,511,581,-64
-256,-382,15709,511,570,-78
-256,-391,15711,511,568,-68
-256,-372,15721,511,567,-72
-256,-383,15953,256,579,-67
-256,-366,15959,256,575,-51
-256,-396,15960,256,574,-58
-256,-416,15945,256,577,-72
-256,-444,15966,256,574,-85
-256,-418,15719,511,563,-86
-256,-367,15942,256,557,-68
-256,-388,15671,511,571,-52
-256,-440,15707,511,574,-77
-256,-399,15709,511,567,-76
-256,-384,15725,511,567,-51
-256,-395,15725,511,580,-61
-256,-395,15735,511,587,-75
-256,-378,15721,511,582,-78
-256,-400,15990,256,575,-75
-256,-395,15725,511,577,-82
-256,-375,15743,511,590,-71
-256,-371,15701,511,588,-73
-256,-391,15734,511,584,-79
-256,-355,15721,511,579,-68
-256,-379,15983,256,572,-79
-256,-390,15966,256,573,-72
-256,-402,15679,511,569,-75
-256,-432,15684,511,575,-75
-256,-458,15693,511,575,-59
-256,-409,15704,511,565,-71
-256,-403,15973,256,568,-68
-256,-379,15747,511,568,-78
-256,-331,15732,511,568,-74
-256,-434,15717,511,564,-86
-256,-430,15688,511,570,-87
-256,-420,15722,511,575,-74
-256,-402,15988,256,573,-58
-256,-372,15981,256,570,-74
-256,-382,15688,511,587,-73
-256,-388,15700,511,582,-65
-256,-369,15994,256,570,-74
-256,-362,15974,256,568,-74
-256,-375,15952,256,569,-68
-256,-409,15956,256,569,-69
-256,-404,15696,511,581,-72
-256,-445,15697,511,564,-68
-256,-432,15677,511,567,-58
-256,-395,15696,511,569,-86
-256,-400,15967,256,586,-81
-256,-400,15720,511,600,-63
-256,-390,15696,511,571,-74
-256,-385,15704,511,576,-82
-256,-382,15741,511,590,-73
-256,-382,15702,511,584,-72
-256,-355,15705,511,567,-70
-256,-360,15704,511,571,-66
-256,-371,15958,256,587,-87
-256,-398,15704,511,571,-93
-256,-385,15699,511,569,-89
-256,-389,15695,511,570,-75
-256,-419,15696,511,563,-75
-256,-386,15985,256,564,-86
-256,-392,15712,511,574,-85
-256,-383,15700,511,561,-86
-256,-381,15974,256,570,-86
-256,-387,15950,256,562,-85
-256,-356,15985,256,562,-90
-256,-366,15729,511,575,-93
-256,-352,15762,511,569,-100
-256,-406,15705,511,578,-88
-256,-377,15726,511,586,-67
-256,-359,15687,511,576,-61
-256,-385,15656,511,568,-70
-256,-375,15731,511,575,-77
-256,-433,15731,511,574,-89
-256,-415,15755,256,569,-92
-256,-407,15748,511,580,-79
-256,-395,16015,256,570,-81
-256,-356,15740,511,559,-77
-256,-373,15973,256,570,-72
-256,-385,15943,256,581,-89
-256,-366,15675,511,569,-100
-256,-363,15744,511,565,-80
-256,-370,15776,511,571,-74
-256,-361,16010,256,580,-75
-256,-405,15971,256,582,-81
-256,-431,15726,511,573,-84
-256,-401,15998,256,565,-71
-256,-396,15730,511,572,-68
-256,-393,15988,256,571,-75
-256,-437,15705,511,565,-69
-256,-361,15696,511,575,-63
-256,-403,15758,511,575,-77
-256,-371,15698,511,569,-96
-256,-369,15725,511,558,-82
-256,-347,15763,511,568,-84
-256,-417,15985,256,577,-76
-256,-400,15958,256,585,-76
-256,-383,15719,511,587,-61
-256,-361,15695,511,579,-55
-256,-388,15699,511,566,-61
-256,-395,15703,511,572,-64
-256,-402,15738,511,576,-56
-256,-371,15684,511,560,-71
-256,-377,15728,511,563,-71
-256,-385,15957,256,562,-69
-256,-375,15971,256,568,-82
-256,-410,15697,511,549,-71
-256,-384,15704,511,571,-77
-256,-400,15735,511,570,-68
-256,-406,15716,511,563,-76
-256,-406,15717,511,577,-72
-256,-455,15995,256,574,-67
-256,-437,15684,511,583,-96
-256,-416,15723,511,590,-84
-256,-392,15696,511,583,-76
-256,-360,15695,511,566,-82
-256,-364,15720,511,574,-88
-256,-382,15707,511,584,-92
-256,-406,15716,511,590,-80
-256,-418,15969,256,579,-70
-256,-404,15735,511,579,-68
-256,-395,15686,511,582,-75
-256,-378,15686,511,573,-77
-256,-369,15968,256,586,-85
-256,-374,15978,256,590,-86
-256,-394,15996,256,569,-65
-256,-406,15729,511,561,-75
-256,-390,15954,256,564,-84
-256,-401,15673,511,578,-86
-256,-411,15722,511,574,-73
-256,-392,15733,511,575,-71
-256,-388,15736,511,575,-68
-1,-355,15973,256,566,-68
-256,-354,15959,256,560,-63
-256,-399,15743,511,570,-58
-256,-413,15957,256,569,-83
-256,-390,15728,511,572,-90
-256,-385,15718,511,588,-85
-256,-406,15689,511,592,-85
-256,-425,15670,511,588,-82
-256,-417,15696,511,576,-75
-256,-378,15736,511,585,-74
-256,-398,15701,511,585,-81
-256,-384,15695,511,581,-67
-256,-382,15665,511,570,-82
-256,-420,15941,256,565,-88
-256,-433,15673,511,564,-83
-256,-409,15698,511,563,-81
-256,-402,15992,256,568,-92
-256,-391,15986,256,567,-93
-256,-381,15759,511,570,-86
-256,-359,15998,256,589,-77
-256,-365,15755,511,584,-79
-256,-423,16032,256,558,-75
-256,-422,15741,511,556,-92
-256,-392,15966,256,565,-98
-256,-368,15728,511,574,-81
-256,-411,15750,511,558,-84
-256,-400,15732,511,557,-76
-256,-398,15964,256,569,-79
-256,-390,15727,511,586,-85
-256,-414,15735,511,578,-75
-256,-414,15704,511,570,-82
-256,-382,15730,511,567,-82
-256,-416,15714,511,561,-77
-256,-401,15682,511,554,-60
-256,-453,15939,256,577,-50
-256,-434,15703,511,570,-69
-256,-411,15968,256,567,-61
-256,-398,15716,511,579,-66
-256,-369,15730,511,585,-69
-256,-384,15703,511,579,-81
-256,-388,15735,511,583,-62
-256,-374,15740,511,597,-52
-256,-398,15690,511,600,-55
-256,-411,15973,256,603,-59
-256,-452,15721,511,592,-71
-256,-394,15706,511,585,-69
-256,-438,15969,256,584,-46
-256,-438,15700,511,586,-77
-256,-428,15935,256,583,-82
-256,-390,15664,511,577,-84
-256,-404,15718,511,579,-74
-256,-356,15712,511,577,-78
-256,-384,15689,511,586,-67
-256,-412,15708,511,576,-73
-256,-423,15734,511,587,-82
-256,-394,15977,256,580,-70
-256,-404,15965,256,582,-70
-256,-428,15683,511,577,-69
-256,-418,15699,511,571,-87
-256,-434,15680,511,565,-91
-256,-406,15695,511,570,-73
-256,-429,15692,511,591,-76
-256,-380,15954,256,580,-75
-256,-368,15977,256,560,-89
-256,-388,15967,256,566,-92
-256,-377,15990,256,580,-82
-256,-339,15949,256,583,-99
-256,-355,15944,256,577,-88
-256,-381,15957,256,572,-92
-256,-377,15682,511,561,-103
-256,-424,15971,256,575,-98
-256,-386,15710,511,583,-81
-256,-363,15949,256,582,-66
-256,-377,15961,256,579,-77
-256,-391,15992,256,571,-74
-256,-391,15950,256,572,-70
-256,-443,15970,256,578,-76
-256,-397,15941,256,583,-80
-256,-439,15657,511,563,-79
-256,-399,15684,511,559,-78
-256,-381,15729,511,557,-56
-256,-390,15740,511,553,-71
-256,-406,16014,256,563,-84
-256,-375,15757,511,574,-75
-256,-409,15987,256,561,-84
-256,-410,15990,256,581,-73
-256,-364,15974,256,574,-69
-256,-408,15983,256,572,-73
-256,-430,15720,511,587,-73
-256,-437,15713,511,577,-82
-256,-436,15700,511,578,-70
-256,-441,15668,511,582,-59
-256,-343,15734,511,562,-85
-256,-355,15717,511,551,-79
-256,-401,15984,256,568,-72
-256,-420,15714,511,588,-78
-256,-429,15670,511,583,-78
-256,-417,15676,511,598,-76
-256,-413,15734,511,583,-92
-256,-397,15961,256,564,-91
-256,-392,15960,256,586,-83
-256,-410,15990,256,578,-76
-256,-372,15990,256,572,-77
-256,-398,15718,511,571,-69
-256,-387,15690,511,576,-62
-256,-387,15720,511,582,-60
-256,-412,15703,511,564,-65
-256,-414,15718,511,567,-68
-256,-418,15989,256,573,-79
-256,-388,15725,511,573,-71
-256,-359,15709,511,566,-87
-256,-343,15699,511,559,-80
-256,-370,15719,511,571,-89
-256,-371,15759,511,568,-66
-256,-341,15711,511,577,-60
-256,-372,15714,511,585,-57
-256,-380,15980,256,577,-70
-256,-397,15729,511,586,-76
-256,-416,15725,511,573,-65
-256,-398,15745,511,569,-78
-256,-402,16004,256,573,-91
-256,-397,15729,511,569,-78
-256,-426,15978,256,567,-87
-256,-425,15986,256,567,-81
-256,-420,15981,256,573,-85
-256,-365,15750,511,569,-85
-256,-376,15707,511,560,-90
-256,-447,15721,511,572,-86
-256,-398,15704,511,574,-79
-256,-390,15981,256,552,-80
-256,-334,15719,511,562,-80
-256,-334,15731,511,583,-80
-256,-371,15702,511,575,-99
-256,-420,15706,511,569,-88
-256,-412,15722,511,567,-65
-256,-408,15724,511,575,-67
-256,-408,15720,511,573,-95
-256,-428,15721,511,579,-75
-256,-392,15971,256,572,-84
-256,-377,15974,256,561,-106
-256,-415,15745,511,575,-88
-256,-383,15700,511,576,-85
-256,-414,15692,511,562,-99
-256,-402,15941,256,564,-97
-256,-408,15702,511,570,-87
-256,-416,15975,256,569,-74
-256,-396,15720,511,570,-73
-256,-398,15737,511,574,-67
-256,-457,15717,511,557,-72
-256,-398,15719,511,569,-83
-256,-429,15681,511,579,-76
-256,-425,15706,511,568,-77
-256,-376,15737,511,582,-74
-256,-346,15725,511,573,-74
-256,-411,15724,511,580,-93
-256,-381,15717,511,570,-69
-256,-434,15708,511,561,-72
-256,-404,15713,511,571,-83
-256,-370,15721,511,568,-88
-256,-369,15740,511,577,-75
-256,-402,15703,511,567,-68
-256,-423,15711,511,577,-78
-256,-402,15736,511,590,-76
-256,-419,15735,511,571,-75
-256,-423,15992,256,558,-69
-256,-410,15710,511,565,-77
-256,-399,15954,256,564,-72
-256,-355,15700,511,567,-82
-256,-363,15992,256,566,-91
-256,-390,15970,256,564,-82
-256,-419,15728,511,571,-75
-256,-421,15730,511,573,-59
-256,-399,15988,256,573,-76
-256,-376,15728,511,573,-76
-256,-378,15741,511,562,-79
-256,-416,15706,511,563,-76
-256,-359,15967,256,558,-86
-256,-385,15706,511,576,-88
-256,-407,15721,511,575,-69
-256,-377,15750,511,572,-78
-256,-377,15992,256,574,-93
-256,-384,15720,511,566,-90
-256,-392,15755,511,564,-78
-256,-417,15998,256,565,-79
-256,-381,15725,511,565,-78
-256,-385,15716,511,595,-71
-256,-395,15715,511,580,-85
-256,-430,15702,511,570,-80
-256,-425,15953,256,567,-79
-256,-398,15708,511,565,-79
-256,-377,15707,511,568,-76
-256,-368,15976,256,579,-75
-256,-421,15960,256,579,-86
-256,-425,15933,256,573,-77
-256,-390,15730,511,579,-67
-256,-344,15735,511,583,-66
-256,-410,16016,256,580,-63
-256,-432,15740,511,575,-79
-256,-475,16014,256,594,-74
-256,-404,15728,511,583,-79
-256,-392,15753,511,575,-74
-256,-401,15745,511,568,-64
-256,-433,15773,511,580,-70
-256,-448,15706,511,584,-73
-256,-385,15705,511,582,-80
-256,-365,15730,511,583,-87
-256,-367,15987,256,578,-86
-256,-397,15757,511,570,-78
-256,-361,15970,256,577,-72
-256,-394,15956,256,582,-65
-256,-439,15998,256,575,-68
-256,-430,15764,511,581,-73
-256,-406,15728,511,585,-73
-256,-441,15718,511,603,-53
-256,-402,15697,511,583,-71
-256,-411,15681,511,577,-69
-256,-393,15699,511,578,-76
-256,-421,15984,256,579,-60
-256,-419,15737,511,591,-68
-256,-401,15734,511,576,-78
-256,-397,15702,511,566,-83
-256,-394,15728,511,577,-83
-256,-371,15684,511,582,-88
-256,-374,15737,511,591,-93
-256,-404,15700,511,591,-70
-256,-426,15947,256,589,-60
-256,-372,15988,256,579,-67
-256,-377,15720,511,582,-79
-256,-383,15730,511,601,-83
-256,-405,15705,511,587,-81
-256,-375,15696,511,574,-78
-256,-389,15718,511,572,-69
-256,-400,15707,511,577,-65
-256,-404,15730,511,569,-75
-256,-416,15717,511,568,-96
-256,-371,15705,511,564,-71
-256,-396,15694,511,570,-81
-256,-392,15678,511,574,-82
-256,-411,15744,511,577,-63
-256,-413,15751,511,571,-63
-256,-381,15735,511,578,-71
-256,-366,15991,256,577,-78
-256,-380,15667,511,564,-97
-256,-406,15716,511,567,-104
-256,-450,15746,511,566,-83
-256,-454,15739,256,569,-86
-256,-446,15715,511,587,-82
-256,-455,15714,511,574,-84
-256,-436,15966,256,579,-86
-256,-420,15710,511,563,-79
-256,-409,15940,256,569,-90
-256,-380,15702,511,573,-90
-256,-376,15961,256,578,-75
-256,-422,15709,511,576,-87
-256,-405,15951,256,583,-75
-256,-349,15731,511,591,-67
-256,-354,15986,256,598,-68
-256,-373,15983,256,582,-79
-256,-370,15716,511,577,-62
-256,-375,15710,511,590,-59
-256,-391,15728,511,570,-73
-256,-381,15734,511,580,-74
-256,-432,15966,256,588,-78
-256,-420,15716,511,590,-81
-256,-402,15742,511,581,-95
-256,-390,15731,511,591,-96
-256,-395,15718,511,576,-88
-256,-379,15714,511,591,-89
-256,-372,15704,511,585,-74
-256,-372,15679,511,576,-79
-256,-385,15697,511,574,-64
-256,-376,15995,256,578,-65
-256,-420,15991,256,564,-59
-256,-374,15722,511,563,-55
-256,-377,15715,511,585,-70
-256,-355,15681,511,585,-74
-256,-359,15663,511,575,-74
-256,-407,15663,511,590,-70
-256,-366,15701,511,586,-61
-256,-409,15723,511,579,-73
-256,-423,15734,256,575,-67
-256,-463,15712,511,568,-73
-256,-417,15727,511,578,-78
-256,-347,15749,511,573,-78
-256,-377,15741,511,569,-66
-256,-409,15769,256,564,-55
-256,-418,15691,511,566,-62
-256,-360,15680,511,558,-72
-256,-416,15733,511,552,-78
-256,-413,15735,511,568,-59
-256,-368,15991,256,567,-76
-256,-414,15929,256,568,-70
-256,-409,15714,511,564,-65
-256,-432,15681,511,559,-70
-256,-402,15974,256,560,-77
-256,-373,15718,511,561,-65
-256,-343,15774,511,565,-80
-256,-386,15757,511,588,-85
-256,-413,15708,511,590,-87
-256,-427,15669,511,581,-77
-256,-464,15914,256,569,-60
-256,-408,15722,511,578,-70
-256,-417,15753,511,572,-69
-256,-363,15731,511,578,-53
-256,-350,15694,511,574,-87
-256,-384,15742,511,571,-80
-256,-385,15751,511,570,-71
-256,-357,15741,511,564,-79
-256,-384,15686,511,583,-71
-256,-451,15696,511,585,-74
-256,-420,15959,256,566,-74
-256,-410,15688,511,559,-79
-256,-372,15968,256,569,-86
-256,-387,15964,256,584,-74
-256,-377,15674,511,572,-80
-256,-395,15974,256,574,-79
-256,-395,15742,511,575,-69
-256,-425,15970,256,576,-73
-256,-433,16013,256,576,-73
-256,-383,15727,511,564,-74
-256,-389,15922,256,575,-70
-256,-326,15717,511,554,-86
-256,-375,15749,511,567,-84
-256,-391,15728,511,577,-89
-256,-388,15722,511,584,-86
-256,-396,15735,511,576,-80
-256,-389,15731,511,584,-80
-256,-404,15734,511,577,-90
-256,-387,15737,511,575,-76
-256,-407,15719,511,581,-74
-256,-397,15722,511,578,-77
-256,-398,15699,511,565,-83
-256,-420,15977,256,579,-78
-256,-414,15713,511,572,-82
-256,-422,15715,511,572,-91
-256,-429,15694,511,577,-79
-256,-441,15702,511,579,-89
-256,-417,15696,511,574,-87
-256,-398,15963,256,572,-73
-256,-371,15977,256,562,-69
-256,-388,15977,256,575,-73
-256,-404,15732,511,574,-64
-256,-373,15707,511,577,-62
-256,-392,15700,511,593,-69
-256,-409,15685,511,584,-80
-256,-406,15690,511,559,-79
-256,-381,15696,511,564,-74
-256,-366,15982,256,570,-66
-256,-380,15746,511,568,-71
-256,-376,15720,511,569,-80
-256,-370,15712,511,576,-76
-256,-388,15679,511,577,-84
-256,-390,15964,256,564,-76
-256,-396,15728,511,572,-92
-256,-394,15727,511,573,-68
-256,-398,15746,511,566,-67
-256,-382,15744,511,579,-68
-256,-414,15754,511,580,-67
-256,-411,15729,511,574,-70
-256,-408,15730,511,576,-65
-256,-354,15736,511,586,-66
-256,-373,15742,511,572,-65
-256,-412,15963,256,583,-67
-256,-396,15935,256,574,-68
-256,-415,15711,511,570,-64
-256,-406,15933,256,582,-64
-256,-413,16003,256,566,-54
-256,-409,15766,511,570,-52
-256,-383,15725,511,571,-77
-256,-385,15969,256,573,-64
-256,-403,15974,256,564,-66
-256,-432,15729,511,558,-68
-256,-426,15719,511,565,-85
-256,-420,15734,511,584,-81
-256,-401,15730,511,584,-76
-256,-413,15957,256,582,-79
-256,-399,15955,256,578,-79
-256,-409,15998,256,577,-76
-256,-364,15719,511,577,-73
-256,-387,15715,511,580,-74
-256,-413,15690,511,578,-76
-256,-406,15731,511,580,-79
-256,-412,15987,256,574,-60
-256,-409,16006,256,579,-74
-256,-384,15946,256,583,-75
-256,-404,15693,511,570,-64
-256,-387,15712,511,571,-71
-256,-408,15740,511,591,-76
-256,-389,15722,511,581,-79
-256,-387,15708,511,567,-80
-256,-381,15715,511,582,-87
-256,-459,15713,511,572,-100
-256,-422,15698,511,575,-75
-256,-386,15725,511,571,-75
-256,-425,15965,256,581,-87
-256,-401,15994,256,568,-104
-256,-378,15974,256,565,-103
-256,-411,15748,511,575,-68
-256,-440,15731,511,580,-58
-256,-439,15707,511,576,-79
-256,-411,15696,511,576,-64
-256,-421,15990,256,578,-64
-256,-423,15965,256,564,-82
-256,-426,15736,511,562,-77
-256,-409,15705,511,569,-72
-256,-372,15721,511,567,-64
-256,-350,15678,511,598,-71
-256,-366,15932,256,588,-85
-256,-380,15970,256,567,-70
-256,-427,15955,256,564,-72
-256,-378,15951,256,580,-76
-256,-345,15752,511,574,-77
-256,-381,15750,511,560,-95
-256,-400,15709,511,570,-80
-256,-380,15718,511,566,-77
-256,-403,15724,511,571,-84
-256,-393,15700,511,578,-77
-256,-414,15692,511,576,-88
-256,-414,15964,256,576,-89
-256,-399,15739,511,577,-81
-256,-366,15951,256,572,-84
-256,-412,15981,256,574,-64
-256,-436,15738,511,569,-83
-256,-360,15742,511,574,-79
-256,-376,15959,256,551,-73
-256,-401,15756,511,564,-67
-256,-409,15695,511,558,-71
-256,-401,15723,511,564,-77
-256,-424,15999,256,584,-68
-256,-387,15978,256,592,-75
-256,-444,15968,256,566,-83
-256,-462,15967,256,577,-77
-256,-450,15664,511,589,-87
-256,-429,15693,511,590,-98
-256,-412,15941,256,575,-102
-256,-414,15719,511,591,-99
-256,-421,15712,511,576,-76
-256,-386,15723,511,573,-74
-256,-397,15735,511,576,-82
-256,-363,15726,511,577,-70
-256,-389,15741,511,572,-70
-256,-397,15749,511,574,-88
-256,-386,15995,256,581,-92
-256,-386,15739,511,590,-68
-256,-383,15695,511,580,-68
-256,-411,15734,511,559,-84
-256,-422,15745,511,572,-77
-256,-444,15701,511,584,-76
-256,-411,15682,511,589,-81
-256,-412,15713,511,597,-87
-256,-366,15707,511,578,-91
-256,-382,15673,511,578,-90
-256,-378,15701,511,580,-86
-256,-381,15694,511,576,-84
-256,-364,15737,511,570,-98
-256,-355,15679,511,576,-91
-256,-421,15696,511,570,-84
-256,-386,15749,511,566,-76
-256,-397,15732,511,569,-71
-256,-392,15740,511,565,-78
-256,-407,15730,511,570,-84
-256,-415,15722,511,563,-87
-256,-434,15983,256,563,-78
-256,-421,15727,511,564,-73
-256,-423,15714,511,565,-92
-256,-395,15733,511,570,-84
-256,-397,15728,511,568,-83
-256,-432,15984,256,564,-77
-256,-423,15975,256,579,-74
-256,-416,15973,256,584,-72
-256,-424,15982,256,586,-80
-256,-435,15708,511,569,-76
-256,-402,15698,511,566,-76
-256,-424,15711,511,562,-77
-256,-395,15691,511,568,-86
-256,-365,15974,256,569,-75
-256,-417,15962,256,575,-80
-256,-393,15937,256,566,-97
-256,-438,15672,511,573,-92
-256,-434,15675,511,572,-85
-256,-410,15971,256,564,-80
-256,-433,15951,256,562,-92
-256,-436,15727,511,584,-82
-256,-433,15685,511,578,-79
-256,-404,15721,511,585,-80
-256,-440,15686,511,577,-89
-256,-439,15701,511,592,-69
-256,-386,15708,511,576,-72
-256,-428,15731,511,572,-69
-256,-420,15761,511,564,-77
-256,-432,15735,511,561,-80
-256,-419,15705,511,570,-81
-256,-390,15723,511,575,-90
-256,-424,16009,256,583,-89
-256,-407,15693,511,586,-82
-256,-406,15970,256,584,-90
-256,-415,15747,511,582,-82
-256,-390,15689,511,577,-80
-256,-389,15971,256,578,-76
-256,-382,15948,256,594,-61
-256,-406,15712,511,596,-60
-256,-384,15714,511,575,-71
-256,-377,15984,256,569,-86
-256,-369,15760,511,576,-68
-256,-405,16006,256,563,-64
-256,-389,15736,511,561,-82
-256,-399,15725,511,573,-85
-256,-392,15733,511,573,-76
-256,-379,15959,256,582,-72
-256,-416,15716,511,567,-73
-256,-430,15707,511,577,-77
-256,-453,15974,256,576,-84
-256,-407,15705,511,557,-82
-256,-387,15687,511,567,-70
-256,-428,15939,256,569,-76
-256,-430,15950,256,574,-72
-256,-436,15698,511,583,-76
-256,-424,15994,256,579,-74
-256,-417,15713,511,577,-78
-256,-390,15736,511,569,-83
-256,-389,15713,511,574,-82
-256,-356,15682,511,579,-90
-256,-385,15722,511,573,-94
-256,-420,16016,256,568,-71
-256,-417,15979,256,561,-61
-256,-410,15714,511,577,-81
-256,-456,15689,511,572,-80
-256,-446,15673,511,573,-62
-256,-410,15685,511,577,-73
-256,-434,15720,511,548,-82
-256,-415,15963,256,567,-86
-256,-388,15714,511,578,-66
-256,-394,15703,511,586,-78
-256,-379,15716,511,588,-74
-256,-373,15730,511,575,-67
-256,-343,15713,511,572,-67
-256,-374,15951,256,567,-65
-256,-385,15685,511,571,-84
-256,-334,15976,256,582,-79
-256,-403,15700,511,581,-68
-256,-378,15707,511,596,-59
-256,-361,15941,256,581,-73
-256,-369,15978,256,575,-88
-256,-332,15682,511,585,-88
-256,-356,15705,511,588,-90
-256,-379,15714,511,581,-81
-256,-360,15977,256,602,-84
-256,-392,15694,511,584,-86
-256,-385,15699,511,576,-75
-256,-371,15994,256,565,-84
-256,-411,15697,511,565,-81
-256,-450,15717,511,569,-73
-256,-449,15708,511,563,-79
-256,-438,15981,256,561,-76
-256,-404,15984,256,569,-85
-256,-398,15742,511,564,-76
-256,-414,15708,511,569,-81
-256,-395,15724,511,574,-73
-256,-440,15712,511,580,-82
-256,-390,15724,511,579,-76
-256,-357,15754,511,582,-74
-256,-407,15723,511,567,-89
-256,-416,15717,511,558,-80
-256,-465,15717,511,568,-75
-256,-419,15745,511,568,-86
-256,-375,15698,511,583,-87
-256,-392,15711,511,579,-84
-256,-403,15967,256,573,-87
-256,-448,15732,511,576,-82
-256,-448,15965,256,583,-89
-256,-424,15980,256,579,-87
-256,-423,15666,511,582,-86
-256,-380,15673,511,575,-69
-256,-410,15955,256,567,-65
-256,-405,15735,511,569,-68
-256,-427,15690,511,578,-74
-256,-411,15709,511,595,-69
-256,-396,15719,511,580,-83
-256,-407,15742,511,595,-73
-256,-368,15753,511,588,-62
-256,-394,15723,511,570,-72
-256,-393,15725,511,567,-78
-256,-394,15694,511,562,-76
-256,-391,15968,256,569,-70
-256,-416,15678,511,584,-87
-256,-409,15703,511,592,-93
-256,-350,15743,511,588,-76
-256,-375,15997,256,582,-81
-256,-378,15985,256,568,-88
-256,-381,15777,511,559,-84
-256,-395,15965,256,572,-65
-256,-393,15715,511,569,-93
-256,-423,15719,511,572,-105
-256,-392,15707,511,577,-78
-256,-397,15733,511,572,-105
-256,-408,15935,256,580,-98
-256,-409,15979,256,579,-73
-256,-355,15720,511,579,-71
-256,-381,15717,511,597,-76
-256,-417,15698,511,594,-67
-256,-398,15705,511,590,-72
-256,-384,15685,511,584,-83
-256,-371,15707,511,578,-93
-256,-403,15708,511,566,-100
-256,-373,15698,511,566,-95
-256,-385,15668,511,572,-74
-256,-419,15694,511,578,-72
-256,-386,15713,511,574,-72
-256,-403,15703,511,576,-85
-256,-380,15716,511,590,-95
-256,-390,15986,256,590,-91
-256,-395,15731,511,569,-70
-256,-397,15780,511,570,-74
-256,-387,15745,511,574,-76
-256,-394,15693,511,583,-66
-256,-385,15700,511,576,-67
-256,-436,15692,511,576,-77
-256,-419,15724,511,572,-79
-256,-410,15735,511,563,-81
-256,-387,16002,256,577,-75
-256,-374,15705,511,584,-63
-256,-410,15950,256,578,-58
-256,-402,15971,256,579,-68
-256,-402,15739,511,585,-74
-256,-404,15981,256,598,-68
-256,-405,15970,256,590,-80
-256,-354,15728,511,576,-89
-256,-409,15759,511,568,-93
-256,-427,15735,511,573,-98
-256,-372,15672,511,581,-96
-256,-394,15660,511,592,-84
-256,-406,15964,256,586,-64
-256,-370,15970,256,585,-75
-256,-389,15722,511,570,-78
-256,-400,15709,511,580,-75
-256,-417,15727,511,587,-72
-256,-411,15735,511,578,-70
-256,-399,15737,511,579,-64
-256,-421,15747,511,576,-65
-256,-408,15995,256,577,-81
-256,-440,15969,256,568,-87
-256,-408,15696,511,574,-81
-256,-418,15676,511,565,-68
-256,-385,15978,256,566,-90
-256,-400,15721,511,576,-103
-256,-391,15731,511,572,-68
-256,-424,15721,511,560,-70
-256,-384,15733,511,564,-90
-256,-431,15976,256,569,-81
-256,-443,15749,511,576,-83
-256,-390,15978,256,588,-77
-256,-412,15943,256,572,-85
-256,-404,15710,511,568,-86
-256,-377,15696,511,586,-69
-256,-338,15737,511,583,-61
-256,-370,15744,511,585,-65
-256,-395,15720,511,575,-72
-256,-401,15716,511,570,-84
-256,-424,15743,511,584,-88
-256,-391,15736,511,576,-82
-256,-386,15750,511,567,-87
-256,-406,15731,511,578,-70
-256,-393,15713,511,583,-58
-256,-433,15708,511,568,-71
-256,-401,15697,511,572,-73
-256,-379,15742,511,577,-85
-256,-364,15706,511,565,-86
-256,-354,15752,511,571,-77
-256,-380,15738,511,576,-64
-256,-386,15961,256,551,-60
-256,-418,15959,256,562,-81
-256,-408,15708,511,570,-71
-256,-370,15744,511,568,-70
-256,-365,15696,511,574,-79
-256,-378,15697,511,580,-80
-256,-358,15698,511,593,-83
-256,-403,15657,511,575,-63
-256,-392,15944,256,573,-58
-256,-380,15977,256,577,-88
-256,-400,15738,511,572,-92
-256,-415,16002,256,588,-75
-256,-410,16008,256,580,-84
-256,-397,15948,256,584,-64
-256,-403,15974,256,584,-58
-256,-385,15978,256,568,-83
-256,-443,15734,511,566,-86
-256,-428,15700,256,576,-81
-256,-391,15705,511,568,-97
-256,-399,15700,511,576,-82
-256,-402,15695,511,572,-67
-256,-403,15727,511,570,-68
-256,-402,15690,511,578,-80
-256,-397,15713,511,596,-79
-256,-456,16016,256,579,-80
-256,-430,15793,511,575,-87
-256,-431,15746,511,578,-82
-256,-387,15735,511,569,-97
-256,-377,15687,511,569,-85
-256,-421,15678,511,564,-77
-256,-389,15708,511,580,-88
-256,-402,15997,256,585,-90
-256,-365,15977,256,584,-83
-256,-390,15712,511,579,-66
-256,-361,15711,511,556,-62
-256,-355,15709,511,574,-72
-256,-391,15740,511,567,-85
-256,-384,15705,511,565,-77
-256,-404,15722,511,577,-69
-256,-406,15724,511,572,-83
-256,-418,15712,511,577,-59
-256,-370,15989,256,577,-65
-256,-400,15970,256,580,-64
-256,-395,15714,511,600,-82
-256,-374,15701,511,584,-67
-256,-377,15757,511,577,-67
-256,-386,15749,511,578,-80
-256,-386,15720,511,572,-81
-256,-384,15966,256,580,-83
-256,-367,15965,256,587,-91
-256,-380,15706,511,579,-80
-256,-390,15946,256,584,-80
-256,-420,15716,511,573,-78
-256,-438,15977,256,586,-78
-256,-420,15688,511,590,-76
-256,-391,15687,511,604,-74
-256,-383,15692,511,584,-60
-256,-372,15720,511,576,-80
-256,-407,15723,511,570,-89
-256,-412,15711,511,574,-64
-256,-374,16000,256,583,-68
-256,-371,15971,256,588,-82
-256,-448,15702,511,584,-88
-256,-402,15690,511,580,-92
-256,-392,15969,256,597,-72
-256,-386,15719,511,604,-66
-256,-413,15727,511,600,-78
-256,-403,15955,256,581,-63
-256,-405,15954,256,577,-73
-256,-404,15733,256,576,-78
-256,-395,15742,511,587,-86
-256,-408,15724,511,574,-92
-256,-405,15723,511,566,-91
-256,-385,15745,511,574,-65
-256,-408,15714,511,567,-56
-256,-397,15740,511,563,-68
-256,-418,15690,511,566,-82
-256,-425,15696,511,570,-93
-256,-411,15979,256,566,-79
-256,-396,16019,256,575,-69
-256,-417,15986,256,582,-70
-256,-419,15745,511,578,-72
-256,-376,15721,511,596,-67
-256,-399,15957,256,568,-87
-256,-419,15725,511,580,-80
-256,-421,15728,511,582,-72
-256,-378,15721,511,576,-72
-256,-398,15727,511,584,-63
-256,-403,15708,511,581,-60
-256,-350,15688,511,566,-80
-1,-372,15722,511,572,-76
-256,-401,15984,256,584,-90
-256,-387,15990,256,590,-79
-256,-366,15736,511,588,-78
-256,-375,15735,511,578,-79
-256,-388,15711,511,577,-76
-256,-379,15695,511,582,-75
-256,-368,15973,256,581,-81
-256,-363,15977,256,593,-83
-256,-408,15687,511,587,-72
-256,-423,15731,511,578,-95
-256,-403,15734,511,566,-75
-256,-444,15693,511,570,-93
-256,-436,15645,511,577,-91
-256,-449,15931,256,566,-77
-256,-449,15941,256,580,-69
-256,-416,15695,511,570,-80
-256,-413,15688,511,547,-81
-256,-414,15948,256,566,-71
-256,-357,15702,511,568,-84
-256,-418,15708,511,576,-76
-256,-403,15676,511,585,-71
-256,-408,15687,511,579,-74
-256,-415,15992,256,575,-80
-256,-379,15993,256,576,-95
-256,-399,15741,511,592,-79
-256,-407,15722,511,592,-72
-256,-380,15700,511,581,-80
-256,-408,15678,511,574,-82
-256,-428,15718,511,562,-88
-256,-397,15728,511,575,-84
-256,-418,15713,511,571,-77
-256,-437,15689,511,566,-89
-256,-426,15709,511,568,-77
-256,-436,15705,511,576,-81
-256,-397,15715,511,577,-98
-256,-369,15698,511,574,-86
-256,-304,15952,256,583,-79
-256,-319,15999,256,573,-81
-256,-366,15750,511,577,-78
-256,-410,15754,511,583,-79
-256,-401,15707,511,579,-51
-256,-427,15715,511,576,-53
-256,-384,15750,511,572,-75
-256,-365,15757,511,571,-79
-256,-390,15721,511,573,-78
-256,-406,15703,511,577,-85
-256,-390,15699,511,578,-81
-256,-392,15721,511,588,-65
-256,-401,15721,511,574,-79
-256,-370,15679,511,568,-75
-256,-404,15707,511,586,-77
-256,-386,15980,256,593,-78
-256,-411,15728,511,583,-80
-256,-404,15745,511,583,-87
-256,-412,15741,511,580,-98
-256,-418,15736,511,564,-92
-256,-410,15732,511,567,-77
-256,-396,15724,511,565,-80
-256,-400,15726,511,581,-84
-256,-412,15980,256,577,-84
-256,-389,15960,256,572,-72
-256,-412,15959,256,571,-71
-256,-377,15694,511,573,-73
-256,-396,16005,256,573,-72
-256,-407,15758,511,575,-89
-256,-400,15755,511,573,-71
-256,-406,15982,256,570,-79
-256,-388,15727,511,570,-79
-256,-413,15990,256,580,-91
-256,-406,15721,511,600,-94
-256,-392,15716,511,584,-102
-256,-365,15732,511,571,-88
-256,-365,15750,511,571,-90
-256,-373,15744,511,579,-93
-256,-370,16033,256,586,-80
-256,-397,16031,256,587,-71
-256,-390,15756,511,588,-91
-256,-399,15707,511,581,-88
-256,-391,15980,256,584,-80
-256,-390,15954,256,577,-71
-256,-380,15644,511,564,-82
-256,-393,15925,256,564,-70
-256,-394,15716,511,562,-74
-256,-416,15706,511,581,-77
-256,-392,15691,511,585,-78
-256,-412,15706,511,572,-82
-256,-432,15680,511,579,-73
-256,-409,15951,256,591,-77
-256,-420,15942,256,585,-83
-256,-358,15981,256,581,-83
-256,-358,16013,256,580,-80
-256,-372,15725,511,571,-79
-256,-388,15696,511,570,-78
-256,-419,15692,511,576,-83
-256,-413,15717,511,581,-66
-256,-417,15985,256,579,-74
-256,-436,15711,511,568,-72
-256,-387,15698,511,568,-81
-256,-412,15700,511,562,-81
-256,-422,15932,256,574,-73
-256,-393,15723,511,588,-76
-256,-394,15721,511,574,-92
-256,-380,15751,511,580,-69
-256,-361,15776,511,563,-72
-256,-374,15743,511,567,-61
-256,-354,15703,511,573,-75
-256,-412,15751,511,566,-79
-256,-422,15727,511,590,-67
-256,-397,15702,511,568,-68
-256,-402,16023,256,578,-79
-256,-379,15738,511,589,-81
-256,-401,15781,511,580,-81
-256,-416,15943,256,573,-76
-256,-404,15928,256,574,-79
-256,-399,15701,511,580,-72
-256,-377,15698,511,576,-66
-256,-388,15721,511,579,-75
-256,-408,15997,256,589,-77
-256,-392,16001,256,585,-77
-256,-412,15960,256,578,-84
-256,-396,15692,511,565,-73
-256,-394,15726,511,566,-72
-256,-405,15724,511,563,-66
-256,-401,15718,511,570,-76
-256,-433,15732,511,565,-78
-256,-413,15684,511,560,-71
-256,-422,15683,511,554,-81
-256,-366,15695,511,563,-61
-256,-373,15690,511,576,-45
-256,-371,15707,511,582,-77
-256,-377,15736,511,585,-60
-256,-368,15976,256,588,-56
-256,-346,15709,511,588,-81
-256,-403,15725,511,597,-93
-256,-376,15732,511,584,-105
-256,-391,15713,511,569,-89
-256,-410,15696,511,585,-81
-256,-388,15702,511,584,-86
-256,-365,15988,256,572,-81
-256,-403,16010,256,573,-65
-256,-437,15993,256,578,-66
-256,-434,15992,256,571,-72
-256,-408,15723,511,561,-68
-256,-392,15772,511,564,-65
-256,-397,15776,511,574,-76
-256,-369,15986,256,576,-82
-256,-383,15729,511,576,-82
-256,-381,15734,511,589,-69
-256,-368,15973,256,586,-72
-256,-374,15728,511,580,-85
-256,-407,15982,256,577,-86
-256,-388,15965,256,577,-82
-256,-326,15659,511,577,-88
-256,-388,15685,511,578,-94
-256,-384,15729,511,589,-80
-256,-403,15704,511,580,-70
-256,-413,15963,256,579,-73
-256,-372,15707,511,589,-69
-256,-395,15972,256,594,-80
-256,-409,15748,511,578,-84
-256,-393,15715,511,580,-73
-256,-388,15944,256,574,-86
-256,-416,16017,256,567,-72
-256,-395,16001,256,583,-86
-256,-398,15736,511,577,-72
-256,-396,15729,511,558,-78
-256,-418,15697,511,572,-87
-256,-408,15683,511,574,-71
-256,-352,15685,511,572,-66
-256,-373,15957,256,575,-68
-256,-388,15975,256,589,-56
-256,-403,15698,511,583,-66
-256,-355,15742,511,573,-62
-256,-369,15729,511,565,-67
-256,-449,15700,511,583,-68
-256,-418,15967,256,593,-78
-256,-393,15731,511,585,-75
-256,-418,15956,256,585,-85
-256,-387,15959,256,580,-81
-256,-382,15986,256,569,-60
-256,-382,15751,511,569,-82
-256,-362,15721,511,572,-69
-256,-370,15725,511,573,-76
-256,-388,15983,256,569,-83
-256,-350,15731,511,562,-84
-256,-384,15924,256,570,-79
-256,-389,15669,511,573,-74
-256,-397,15692,511,566,-73
-256,-390,15717,511,583,-72
-256,-385,15989,256,561,-64
-256,-420,15944,256,574,-64
-256,-370,15939,256,578,-64
-256,-383,15993,256,574,-65
-256,-371,15962,256,583,-78
-256,-401,15686,511,577,-70
-256,-373,15698,511,563,-78
-256,-389,15705,511,571,-83
-256,-368,15693,511,573,-78
-256,-365,15703,511,572,-81
-256,-392,15728,511,587,-78
-256,-462,15750,511,580,-71
-256,-448,15747,511,574,-71
-256,-436,15736,511,569,-60
-256,-395,15739,511,565,-70
-256,-396,15730,511,567,-74
-256,-377,15708,511,579,-77
-256,-404,15708,511,593,-65
-256,-432,15972,256,612,-70
-256,-370,15969,256,601,-76
-256,-375,15985,256,588,-71
-256,-414,15971,256,579,-64
-256,-423,15726,511,577,-66
-256,-416,15961,256,572,-60
-256,-408,15680,511,569,-64
-256,-364,15731,511,565,-68
-256,-396,15695,511,577,-71
-256,-425,15667,511,581,-78
-256,-417,15725,511,573,-78
-256,-424,15707,511,575,-71
-256,-391,15675,511,572,-75
-256,-432,15696,511,560,-67
-256,-420,15723,511,578,-73
-256,-422,15966,256,586,-66
-256,-394,15984,256,575,-57
-256,-415,15724,511,583,-59
-256,-364,15729,511,586,-65
-256,-383,15705,511,570,-55
-256,-391,15695,511,571,-71
-256,-408,15960,256,566,-67
-256,-378,15968,256,564,-70
-256,-374,15732,511,578,-92
-256,-418,15740,511,587,-82
-256,-388,15701,511,572,-93
-256,-392,15672,511,570,-76
-256,-384,15696,511,569,-75
-256,-409,15714,511,561,-82
-256,-392,15688,511,585,-102
-256,-396,16004,256,593,-94
-256,-402,15739,511,576,-77
-256,-433,15974,256,580,-72
-256,-415,15762,511,573,-60
-256,-398,15985,256,572,-71
-256,-367,15931,256,582,-83
-256,-380,15715,511,564,-71
-256,-405,15777,511,577,-75
-256,-385,15698,511,586,-80
-256,-407,15944,256,581,-73
-256,-407,15935,256,574,-87
-256,-426,15704,511,582,-88
-256,-429,15715,511,573,-105
-256,-424,15723,511,569,-77
-256,-372,15724,511,556,-68
-256,-390,15954,256,570,-75
-256,-415,15691,511,564,-75
-256,-407,15701,511,568,-82
-256,-400,15700,511,563,-84
-256,-392,15700,511,559,-72
-256,-404,15720,511,567,-60
-256,-430,15690,511,566,-67
-256,-426,15687,511,573,-66
-256,-407,15684,511,572,-69
-256,-355,15713,511,575,-84
-256,-344,15731,511,572,-76
-256,-386,15748,511,559,-87
-256,-397,15712,511,567,-102
-256,-384,15673,511,570,-97
-256,-374,15654,511,568,-93
-256,-372,15963,256,570,-71
-256,-421,15695,511,584,-84
-256,-414,15946,256,598,-85
-256,-415,15973,256,591,-72
-256,-371,15721,511,594,-79
-256,-413,15703,511,595,-80
-256,-391,16022,256,580,-80
-256,-400,15744,511,569,-75
-256,-409,15725,511,585,-70
-256,-392,15988,256,597,-67
-256,-364,15725,511,575,-51
-256,-349,15711,511,579,-68
-256,-370,15739,511,584,-94
-256,-366,15754,511,589,-92
-256,-383,16008,256,577,-92
-256,-384,15754,511,570,-94
-256,-395,15776,511,564,-76
-256,-410,15977,256,564,-81
-256,-382,15943,256,565,-83
-256,-394,15707,256,576,-62
-256,-389,15720,511,571,-77
-256,-378,15717,511,564,-79
-256,-341,15970,256,588,-73
-256,-404,15699,511,584,-78
-256,-381,15732,511,593,-83
-256,-416,15730,511,598,-66
-256,-393,15714,511,586,-83
-256,-376,15686,511,590,-65
-256,-423,15962,256,568,-59
-256,-467,15711,511,563,-70
-256,-438,15724,511,581,-79
-256,-413,15737,511,590,-79
-256,-415,15736,511,576,-64
-256,-432,15724,511,574,-58
-256,-422,15718,511,569,-64
-256,-347,15978,256,573,-59
-256,-381,15710,511,594,-63
-256,-372,15703,511,577,-65
-256,-375,15759,511,591,-66
-256,-390,15733,511,586,-69
-256,-416,15720,511,588,-81
-256,-439,15732,511,577,-97
-256,-403,15721,511,573,-95
-256,-409,15709,511,578,-92
-256,-418,15980,256,598,-85
-256,-429,15703,511,581,-85
-256,-415,15975,256,570,-83
-256,-389,15729,511,589,-75
-256,-435,15696,511,590,-79
-256,-422,15731,511,573,-75
-256,-427,15964,256,571,-70
-256,-416,15719,511,562,-57
-256,-395,15740,511,583,-73
-256,-386,15966,256,581,-85
-256,-382,15719,511,556,-78
-256,-377,16012,256,569,-65
-256,-395,15715,511,570,-67
-256,-393,15718,511,583,-60
-256,-427,15681,511,578,-76
-256,-408,15682,511,576,-77
-256,-365,15958,256,567,-71
-256,-368,15975,256,556,-66
-256,-417,15704,511,566,-74
-256,-355,15702,511,567,-80
-256,-390,15695,511,571,-76
-256,-392,15994,256,568,-75
-256,-392,15989,256,579,-80
-256,-384,15966,256,582,-66
-256,-423,15995,256,582,-74
-256,-437,15751,511,572,-71
-256,-429,15758,511,570,-74
-256,-397,15723,511,567,-69
-256,-437,15966,256,567,-79
-256,-418,15737,511,564,-68
-256,-444,15705,511,577,-59
-256,-434,15721,511,584,-56
-256,-408,15706,511,566,-58
-256,-390,15711,511,564,-69
-256,-401,15707,511,576,-68
-256,-375,15729,511,580,-47
-256,-394,15704,511,582,-71
-256,-392,15723,511,589,-65
-256,-364,15987,256,582,-66
-256,-370,15683,511,568,-85
-256,-383,15697,511,576,-81
-256,-392,15955,256,570,-84
-256,-425,15687,511,546,-85
-256,-415,15971,256,563,-86
-256,-401,15695,511,560,-85
-256,-382,15692,511,577,-80
-256,-369,15705,511,568,-92
-256,-379,15713,511,574,-72
-256,-359,15750,511,579,-78
-256,-417,15688,511,566,-77
-256,-423,15704,511,574,-77
-256,-402,15688,511,577,-70
-256,-384,15704,511,579,-56
-256,-372,15710,511,579,-57
-256,-364,15682,511,573,-61
-256,-374,15690,511,566,-57
-256,-379,15730,511,564,-63
-256,-420,15719,511,575,-73
-256,-432,15727,511,576,-56
-256,-428,15708,511,574,-60
-256,-422,15726,511,573,-69
-256,-414,15759,511,583,-84
-256,-387,15729,511,583,-67
-256,-388,15717,511,573,-89
-256,-394,15729,511,580,-83
-256,-412,15736,511,570,-85
-256,-394,15746,511,580,-80
-256,-358,15739,511,589,-78
-256,-415,15724,511,580,-79
-256,-445,15978,256,572,-85
-256,-402,15719,511,579,-98
-256,-368,15712,511,589,-93
-256,-368,15731,511,588,-92
-256,-391,15734,511,579,-75
-256,-383,15738,511,571,-83
-256,-413,15762,511,577,-79
-256,-424,15730,511,583,-84
-256,-413,15744,511,573,-93
-256,-400,15697,511,572,-66
-256,-357,15726,511,567,-59
-256,-356,15698,511,562,-71
-256,-331,15739,511,570,-71
-256,-384,15726,511,560,-79
-256,-397,15700,511,563,-81
-256,-417,15732,256,581,-70
-256,-403,15700,256,562,-73
-256,-369,15673,511,577,-66
-256,-403,15683,511,576,-87
-256,-403,15941,256,567,-85
-256,-419,15991,256,578,-88
-256,-384,15729,511,576,-90
-256,-387,15968,256,568,-84
-256,-371,15706,511,564,-71
-256,-405,15723,511,569,-77
-256,-396,15743,511,595,-73
-256,-392,15709,511,571,-91
-256,-406,15980,256,564,-77
-256,-392,15984,256,584,-69
-256,-368,15725,511,593,-76
-256,-372,15970,256,577,-70
-256,-392,15724,511,569,-77
-256,-386,15709,511,569,-88
-256,-385,15948,256,569,-81
-256,-436,15698,511,565,-87
-256,-423,15693,511,559,-91
-256,-432,15710,511,576,-87
-256,-424,15726,511,589,-68
-256,-395,15744,511,586,-72
-256,-413,15723,511,573,-78
-256,-390,15996,256,572,-70
-256,-377,15706,511,580,-79
-256,-385,15676,511,587,-95
-256,-402,15697,511,592,-94
-256,-365,15691,511,596,-76
-256,-400,15989,256,593,-67
-256,-421,15706,511,582,-77
-256,-419,15751,511,580,-69
-256,-431,16011,256,574,-72
-256,-361,15714,511,559,-70
-256,-377,15693,511,573,-60
-256,-393,15952,256,573,-84
-256,-409,15689,511,549,-91
-256,-401,15961,256,575,-70
-256,-404,15695,511,568,-84
-256,-408,15712,511,576,-82
-256,-399,15734,511,568,-86
-256,-402,15932,256,563,-73
-256,-389,15707,511,581,-86
-256,-420,15952,256,585,-85
-256,-418,15959,256,588,-64
-256,-420,15708,511,587,-70
-256,-414,15703,511,589,-86
-256,-406,15721,511,587,-75
-256,-359,15681,511,573,-55
-256,-371,15688,511,564,-69
-256,-393,15737,511,557,-75
-256,-409,15703,511,560,-87
-256,-431,15732,511,580,-72
-256,-407,15729,511,582,-69
-256,-438,15749,511,574,-76
-256,-415,15991,256,580,-86
-256,-385,15712,511,576,-82
-256,-409,15643,511,576,-74
-256,-413,15685,511,597,-76
-256,-438,15734,511,582,-74
-256,-433,15748,511,576,-83
-256,-354,15951,256,576,-71
-256,-390,15728,511,595,-59
-256,-433,15764,511,588,-62
-256,-428,16019,256,579,-55
-256,-452,15991,256,587,-56
-256,-437,15709,511,573,-67
-256,-388,15695,511,578,-70
-256,-371,15972,256,584,-73
-256,-370,15965,256,578,-76
-256,-397,15759,511,556,-76
-256,-389,15704,511,544,-66
-256,-373,15718,511,574,-70
-256,-371,15721,511,580,-59
-256,-375,15736,511,561,-51
-256,-425,15748,511,578,-58
-256,-412,15733,511,568,-79
-256,-433,15722,511,580,-66
-256,-426,15990,256,583,-72
-256,-397,15717,511,578,-72
-256,-410,15759,511,572,-70
-256,-380,15708,511,582,-70
-256,-384,15700,511,581,-75
-256,-359,15736,511,568,-70
-256,-390,15740,511,568,-90
-256,-359,15725,511,585,-95
-256,-393,15729,511,584,-77
-256,-404,15997,256,584,-78
-256,-376,15782,511,583,-85
-256,-378,15760,511,597,-83
-256,-378,15723,511,591,-74
-256,-370,15741,511,587,-69
-256,-403,15730,511,583,-77
-256,-373,15750,511,588,-66
-256,-387,15711,511,588,-78
-256,-437,15717,511,582,-80
-256,-435,15750,511,574,-81
-256,-417,15752,511,577,-91
-256,-399,15752,511,584,-63
-256,-352,15745,511,565,-64
-256,-373,15709,511,581,-64
-256,-373,15727,511,580,-68
-256,-390,15771,511,588,-61
-256,-402,15743,511,597,-58
-256,-379,15714,511,575,-76
-256,-367,15686,511,578,-73
-256,-382,15683,511,578,-59
-256,-412,15980,256,572,-64
-256,-389,15699,511,571,-78
-256,-380,15745,511,578,-71
-256,-352,15711,511,574,-67
-256,-410,15943,256,560,-72
-256,-441,15945,256,568,-77
-256,-373,15739,511,583,-74
-256,-367,15710,511,563,-80
-256,-368,15706,511,558,-63
-256,-400,15734,511,575,-77
-256,-404,15707,511,580,-80
-256,-437,15999,256,567,-77
-256,-398,15737,511,563,-87
-256,-422,15676,511,567,-81
-256,-409,15661,511,574,-80
-256,-400,15916,256,588,-90
-256,-360,15681,511,582,-90
-256,-422,15706,511,587,-82
-256,-410,15687,511,593,-82
-256,-410,15707,511,589,-83
-256,-414,15716,511,581,-84
-256,-404,15987,256,584,-71
-256,-409,16004,256,589,-65
-256,-420,15757,511,594,-66
-256,-397,15984,256,574,-75
-256,-376,15732,511,583,-81
-256,-383,15730,511,579,-82
-256,-399,15695,511,573,-77
-256,-425,15716,511,574,-72
-256,-397,15742,511,573,-81
-256,-355,15733,511,575,-71
-256,-338,15979,256,590,-68
-256,-392,16014,256,575,-74
-256,-430,15733,511,573,-71
-256,-436,15749,511,586,-74
-256,-392,15769,511,591,-81
-256,-401,15728,511,589,-79
-256,-385,15688,511,590,-76
-256,-373,15718,511,590,-93
-256,-384,15725,511,572,-93
-256,-406,15716,511,571,-85
-256,-382,15747,511,567,-69
-256,-400,15732,511,574,-76
-256,-398,15956,256,566,-63
-256,-358,15973,256,568,-64
-256,-366,15934,256,570,-75
-256,-358,15694,511,570,-80
-256,-371,15980,256,583,-74
-256,-378,15960,256,583,-69
-256,-408,15955,256,588,-77
-256,-386,15665,511,579,-78
-256,-380,15985,256,580,-74
-256,-363,15724,511,569,-93
-256,-365,15741,511,574,-96
-256,-397,15732,511,565,-90
-256,-376,15756,511,587,-63
-256,-379,15980,256,594,-73
-256,-386,15713,511,577,-89
-256,-373,15687,511,580,-80
-256,-382,15695,511,590,-71
-256,-362,15758,511,575,-70
-256,-363,15988,256,586,-74
-256,-398,15750,511,572,-81
-256,-382,15714,511,565,-88
-256,-389,15978,256,575,-83
-256,-364,15940,256,569,-86
-256,-401,15963,256,577,-77
-256,-380,15699,511,587,-86
-256,-375,15717,511,570,-79
-256,-419,15714,511,567,-68
-256,-403,15693,511,573,-76
-256,-364,15950,256,600,-89
-256,-394,15661,511,587,-86
-256,-420,15677,511,571,-86
-256,-359,15689,511,580,-87
-256,-350,15713,511,589,-78
-256,-377,15992,256,585,-81
-256,-398,15752,511,585,-79
-256,-406,15724,511,587,-75
-256,-409,15717,511,585,-92
-256,-389,15739,511,569,-72
-256,-370,16002,256,587,-59
-256,-397,15687,511,591,-74
-256,-395,15693,511,574,-75
-256,-401,15694,511,562,-74
-256,-382,15721,511,578,-89
-256,-398,15724,511,587,-84
-256,-404,15968,256,583,-90
-256,-405,15953,256,578,-91
-256,-401,15701,511,581,-82
-256,-386,15709,511,592,-81
-256,-412,15964,256,586,-85
-256,-371,15686,511,576,-90
-256,-422,15941,256,588,-75
-256,-398,15725,511,585,-62
-256,-397,15997,256,583,-51
-256,-409,15996,256,566,-75
-256,-418,15714,511,564,-81
-256,-390,15704,511,578,-94
-256,-400,15751,511,583,-90
-256,-422,15990,256,579,-89
-256,-374,15741,511,577,-92
-256,-382,15721,511,570,-80
-256,-356,15971,256,574,-79
-256,-336,15675,511,584,-52
-256,-346,15959,256,580,-74
-256,-357,15971,256,582,-65
-256,-359,15686,511,572,-65
-256,-385,15989,256,579,-65
-256,-393,15713,511,575,-89
-256,-391,15733,511,578,-72
-256,-402,15708,511,591,-68
-256,-360,15700,511,593,-91
-256,-375,15992,256,579,-85
-256,-348,15700,511,567,-95
-256,-360,15712,511,562,-67
-256,-388,15705,511,568,-68
-256,-406,15697,511,582,-67
-256,-376,16007,256,574,-73
-256,-383,15748,511,574,-73
-256,-375,15949,256,578,-58
-256,-391,15684,511,577,-60
-256,-450,15746,511,577,-72
-256,-435,15735,511,571,-75
-256,-420,15723,511,559,-84
-256,-396,15956,256,559,-74
-256,-360,15704,511,578,-81
-256,-394,15707,511,585,-82
-256,-380,15716,511,566,-85
-256,-366,15736,511,566,-91
-256,-336,15691,511,566,-77
-256,-342,15686,511,578,-75
-256,-406,15732,511,573,-80
-256,-387,15735,511,569,-76
-256,-408,15747,511,566,-88
-256,-342,15732,511,573,-89
-256,-356,16009,256,584,-82
-256,-375,15713,511,566,-68
-256,-397,15720,511,579,-56
-256,-386,15708,511,587,-67
-256,-375,15728,511,571,-77
-256,-364,16004,256,556,-65
-256,-369,15689,511,567,-85
-256,-410,15686,511,575,-79
-256,-385,15721,511,564,-67
-256,-394,15732,511,569,-61
-256,-380,15773,511,579,-78
-256,-367,15757,511,593,-87
-256,-390,15720,511,587,-74
-256,-385,15711,511,575,-66
-256,-415,15684,511,581,-84
-256,-384,15697,511,581,-80
-256,-381,15687,511,574,-70
-256,-390,15698,511,574,-85
-256,-394,15741,511,569,-85
-256,-344,15753,511,579,-86
-256,-382,15746,511,570,-79
-256,-421,15721,511,572,-88
-256,-424,15729,511,569,-83
-256,-411,15715,511,572,-79
-256,-398,15690,256,570,-93
-256,-412,15745,511,567,-90
-256,-413,15701,511,558,-85
-256,-383,15681,511,562,-83
-256,-428,15684,511,573,-69
-256,-431,15712,511,574,-72
-256,-384,15715,511,570,-63
-256,-413,15687,511,561,-83
-256,-401,15719,511,562,-76
-256,-401,15745,511,566,-93
-256,-413,15756,511,570,-82
-256,-414,15982,256,581,-76
-256,-369,15975,256,576,-73
-256,-400,15970,256,578,-77
-256,-400,15706,511,575,-81
-256,-400,15706,511,566,-79
-256,-392,15689,511,569,-81
-256,-427,15687,511,564,-79
-256,-375,15673,511,563,-78
-256,-354,15699,511,565,-83
-256,-340,15724,511,573,-73
-256,-358,15721,511,584,-73
-256,-373,15718,511,589,-70
-256,-367,15952,256,592,-54
-256,-384,15688,511,579,-56
-256,-427,15939,256,572,-70
-256,-403,15699,511,569,-71
-256,-412,15676,511,577,-79
-256,-393,15986,256,572,-76
-256,-390,15759,511,563,-69
-256,-357,16004,256,565,-94
-256,-376,15748,511,568,-104
-256,-362,15713,511,574,-82
-256,-412,15704,511,589,-69
-256,-387,15693,511,581,-73
-256,-363,15947,256,572,-74
-256,-366,15724,511,559,-76
-256,-363,15745,511,572,-76
-256,-364,16005,256,584,-74
-256,-368,15737,511,589,-87
-256,-417,15715,511,583,-88
-256,-410,15723,511,579,-75
-256,-393,15709,511,569,-71
-256,-372,15719,511,571,-64
-256,-409,15727,511,582,-83
-256,-414,15958,256,574,-88
-256,-402,15707,511,574,-86
-256,-406,15719,511,579,-79
-256,-409,15735,511,578,-91
-256,-398,15707,511,572,-73
