Ax,Ay,Az,Gx,Gy,Gz
-256,-332,15712,511,589,-78
-256,-484,15692,511,573,-73
-256,-420,15976,256,569,-97
-256,-388,15944,256,557,-82
-256,-452,15736,511,582,-77
-256,-408,15956,256,585,-85
-256,-468,15712,511,567,-82
-256,-360,15700,511,571,-90
-256,-384,15776,511,577,-73
-256,-360,15704,511,571,-65
-256,-336,15976,256,562,-63
-256,-416,15748,511,572,-73
-256,-384,15724,511,574,-80
-256,-412,16008,256,588,-73
-256,-380,15712,511,577,-88
-256,-364,15976,256,556,-81
-256,-348,15704,511,586,-93
-256,-364,15968,256,573,-80
-256,-336,15760,511,572,-65
-256,-440,15932,256,574,-89
-256,-448,15740,511,581,-93
-256,-388,15996,256,584,-60
-256,-416,15664,511,577,-77
-256,-456,15760,511,567,-85
-256,-412,15752,511,589,-76
-256,-412,16064,256,571,-79
-256,-408,15696,511,565,-83
-256,-356,15704,511,584,-80
-256,-428,15728,511,592,-81
-256,-416,15740,511,571,-78
-256,-348,15736,511,562,-81
-256,-392,15708,511,559,-87
-256,-416,16016,256,571,-48
-256,-400,16028,256,576,-76
-256,-352,15792,256,578,-88
-256,-352,16004,256,584,-76
-256,-488,15724,511,577,-64
-256,-336,15652,511,563,-61
-256,-404,15740,511,563,-64
-256,-376,15932,256,588,-85
-256,-368,15760,511,591,-95
-256,-512,15720,511,567,-81
-256,-456,15744,511,586,-94
-256,-336,15712,511,592,-100
-256,-396,15968,256,588,-95
-256,-396,15728,511,576,-74
-256,-404,15764,511,589,-89
-256,-392,16000,256,565,-77
-256,-424,15760,511,555,-77
-256,-484,16004,256,575,-68
-256,-404,15680,511,582,-62
-256,-368,15708,511,603,-82
-256,-348,15736,511,595,-72
-256,-420,15724,511,580,-79
-256,-360,15732,511,594,-81
-256,-412,15716,256,571,-76
-256,-424,15720,511,563,-80
-256,-424,15764,511,577,-85
-256,-436,15712,511,570,-75
-256,-380,15948,256,556,-64
-256,-360,15688,511,568,-57
-256,-348,15676,511,570,-74
-256,-344,15688,511,572,-65
-256,-424,15756,511,562,-90
-256,-396,15752,511,574,-70
-256,-380,15992,256,583,-65
-256,-360,15676,256,583,-104
-256,-344,15976,511,581,-82
-256,-356,15968,256,583,-100
-256,-420,15952,256,587,-77
-256,-356,15976,256,573,-76
-256,-372,15940,256,575,-74
-256,-304,15968,256,563,-64
-256,-396,15736,511,578,-67
-256,-412,15692,511,573,-76
-256,-424,15784,511,576,-64
-256,-356,15708,511,570,-74
-256,-372,15920,256,557,-81
-256,-392,15692,511,576,-91
-256,-344,15976,256,566,-79
-256,-372,15696,511,567,-56
-256,-404,15668,256,577,-80
-256,-408,15736,511,570,-100
-256,-392,15728,511,573,-78
-256,-412,15752,511,566,-104
-256,-336,15748,511,556,-104
-256,-388,15916,256,569,-96
-256,-388,15744,511,576,-88
-256,-452,15696,511,575,-76
-256,-384,15988,256,574,-103
-256,-408,15720,511,579,-93
-256,-364,15664,511,587,-73
-256,-404,15720,511,593,-85
-256,-432,15964,256,582,-83
-256,-436,15764,511,579,-97
-256,-428,15708,511,572,-74
-256,-352,15732,511,581,-52
-256,-416,15736,511,589,-64
-256,-428,15764,511,571,-84
-256,-376,15740,511,575,-94
-256,-372,16024,256,580,-72
-256,-380,16012,256,572,-79
-256,-384,15688,511,580,-100
-256,-408,15932,256,588,-76
-256,-364,15972,256,577,-84
-256,-396,15920,256,569,-82
-256,-404,15980,256,579,-75
-256,-420,15692,511,586,-91
-256,-420,16032,256,598,-88
-256,-380,15740,256,565,-103
-256,-368,15724,511,574,-100
-256,-368,15764,511,579,-75
-256,-400,16036,256,560,-102
-256,-376,15780,511,575,-69
-256,-420,15752,511,584,-69
-256,-352,15768,511,590,-59
-256,-464,15704,511,581,-70
-256,-420,15756,511,588,-70
-256,-436,15728,511,592,-82
-256,-388,15760,511,581,-91
-256,-376,15736,511,588,-68
-256,-420,16020,256,597,-93
-256,-444,16004,256,569,-76
-256,-360,15772,511,575,-70
-256,-376,15712,511,585,-68
-256,-400,15760,511,571,-67
-256,-400,15952,256,556,-87
-256,-416,15952,511,574,-96
-256,-340,15700,256,562,-103
-256,-408,15960,256,554,-74
-256,-412,15688,511,574,-71
-256,-360,15732,511,585,-83
-256,-396,16016,256,590,-56
-256,-372,15720,511,567,-59
-256,-416,15740,511,586,-70
-256,-396,15712,511,574,-76
-256,-384,15916,256,583,-100
-256,-428,15932,256,582,-67
-256,-412,15772,511,589,-88
-256,-408,15992,256,582,-97
-256,-408,15672,511,577,-75
-256,-424,15748,511,571,-61
-256,-432,16024,256,583,-52
-256,-356,15748,511,583,-81
-256,-400,15732,511,600,-96
-256,-388,15712,511,578,-92
-256,-404,15660,256,591,-78
-256,-452,15988,256,578,-72
-256,-428,15956,256,590,-107
-256,-400,15748,511,561,-81
-256,-372,15924,256,575,-73
-256,-348,15928,256,590,-87
-256,-440,15668,511,587,-70
-256,-320,15732,511,570,-41
-256,-392,15660,511,569,-88
-256,-364,15704,511,583,-73
-256,-468,15724,511,594,-73
-256,-392,15944,256,598,-55
-256,-432,15684,511,561,-70
-256,-376,15948,256,566,-77
-256,-428,15688,511,557,-54
-256,-368,15948,511,581,-55
-256,-388,15728,511,585,-109
-256,-412,15748,511,601,-88
-256,-372,15688,511,580,-77
-256,-400,15900,256,586,-94
-256,-380,15700,256,564,-73
-256,-380,15972,256,567,-62
-256,-412,15692,511,581,-76
-256,-348,16000,256,579,-85
-256,-412,15948,256,574,-103
-256,-428,15740,511,567,-112
-256,-424,16024,256,569,-98
-256,-440,15740,511,573,-99
-256,-396,15704,511,579,-72
-256,-408,15888,256,591,-71
-256,-328,15700,256,582,-89
-256,-412,15948,256,596,-81
-256,-412,15728,511,595,-67
-256,-312,15724,511,592,-82
-256,-396,15720,511,590,-83
-256,-372,15704,511,605,-58
-256,-380,15992,256,589,-74
-256,-396,15708,511,576,-76
-256,-336,15704,511,567,-78
-256,-400,15976,256,573,-82
-256,-376,15720,511,589,-39
-256,-400,15652,511,597,-74
-256,-448,15980,256,589,-86
-256,-348,15924,256,584,-82
-256,-352,15724,511,565,-93
-256,-348,15908,256,588,-73
-256,-320,15968,256,581,-98
-256,-440,15712,511,574,-105
-256,-412,15744,511,581,-93
-256,-412,16020,256,587,-81
-256,-416,15704,511,566,-69
-256,-404,15748,511,572,-80
-256,-360,15972,256,579,-100
-256,-428,16020,256,579,-73
-256,-380,15768,511,594,-78
-256,-392,15692,511,594,-84
-256,-364,15744,511,599,-78
-256,-356,15804,511,580,-92
-256,-468,15748,511,582,-65
-256,-420,15976,256,553,-84
-256,-332,15912,256,552,-80
-256,-416,15712,511,575,-82
-256,-416,15736,511,573,-101
-256,-388,15668,511,566,-98
-256,-380,15988,256,581,-86
-256,-340,15700,256,579,-80
-256,-444,16000,256,581,-89
-256,-336,15740,511,599,-75
-256,-412,15992,256,585,-101
-256,-428,15764,511,585,-70
-256,-424,15736,511,584,-63
-256,-428,15740,256,583,-77
-256,-324,15716,256,600,-77
-256,-384,15752,511,585,-71
-256,-404,15720,511,568,-91
-256,-404,15740,511,575,-77
-256,-340,15960,256,580,-75
-256,-376,15992,256,569,-73
-256,-376,15968,256,583,-80
-256,-384,15968,256,569,-96
-256,-428,15740,511,561,-62
-256,-412,15764,511,567,-77
-256,-420,15752,511,598,-68
-256,-372,15760,511,612,-75
-256,-356,15944,256,587,-88
-256,-416,15968,256,575,-74
-256,-396,15744,511,564,-80
-256,-332,15668,511,599,-91
-256,-436,15768,511,601,-82
-256,-404,15732,511,574,-72
-256,-440,15704,511,568,-70
-256,-388,15652,511,566,-96
-256,-352,15944,256,595,-66
-256,-384,15668,511,591,-75
-256,-408,15728,511,571,-110
-256,-400,15720,511,588,-73
-256,-344,15744,511,589,-72
-256,-376,16000,256,588,-71
-256,-408,15736,511,574,-88
-256,-356,15752,511,552,-84
-256,-424,15752,511,567,-101
-256,-424,15720,511,573,-96
-256,-396,16032,256,598,-74
-256,-416,15692,511,599,-57
-256,-428,15720,511,570,-88
-256,-424,15708,511,562,-82
-256,-388,15768,511,592,-38
-256,-360,15688,511,571,-72
-256,-420,15732,511,575,-72
-256,-480,16000,256,573,-102
-256,-436,15976,256,586,-96
-256,-408,15684,511,585,-84
-256,-452,15940,256,592,-68
-256,-352,15752,511,599,-63
-256,-380,15744,511,581,-51
-256,-456,15728,511,559,-75
-256,-368,15764,511,586,-87
-256,-412,15972,256,598,-94
-256,-400,15728,511,581,-82
-256,-344,15756,511,567,-73
-256,-412,15972,256,591,-69
-256,-324,16016,256,589,-34
-256,-424,16048,256,575,-71
-256,-324,15728,511,589,-92
-256,-416,15740,511,575,-86
-256,-440,15768,511,594,-90
-256,-404,15724,511,574,-75
-256,-376,15732,511,567,-70
-256,-344,15964,256,580,-89
-256,-356,15664,511,571,-90
-256,-376,15776,511,590,-101
-256,-352,15972,256,578,-85
-256,-348,15696,511,573,-69
-256,-376,15920,256,579,-72
-256,-400,15692,511,580,-103
-256,-364,15944,256,567,-96
-256,-412,15988,256,608,-90
-256,-332,16012,256,593,-92
-256,-444,15700,511,594,-93
-256,-440,15972,256,574,-83
-256,-428,15712,256,568,-64
-256,-444,15740,511,559,-92
-256,-392,15952,256,561,-94
-256,-408,15692,511,569,-69
-256,-412,16044,256,582,-73
-256,-408,15688,511,582,-90
-256,-372,15972,256,614,-79
-256,-420,15696,511,571,-92
-256,-384,15728,511,569,-88
-256,-384,15728,511,557,-79
-256,-420,15732,256,578,-100
-256,-380,15936,511,573,-80
-256,-412,15756,511,587,-99
-256,-476,15984,256,560,-65
-256,-480,15708,511,564,-73
-256,-372,15700,511,592,-88
-256,-352,15768,511,581,-73
-256,-416,15724,256,559,-90
-256,-444,15740,511,589,-73
-256,-396,15724,511,589,-80
-256,-420,15636,511,593,-85
-256,-424,16008,256,589,-81
-256,-352,15684,511,589,-80
-256,-412,15688,511,563,-87
-256,-408,15684,511,568,-95
-256,-396,15804,511,584,-104
-256,-360,15712,511,577,-78
-256,-428,15712,511,587,-80
-256,-416,15948,256,573,-96
-256,-404,15680,511,567,-86
-256,-376,15696,511,567,-89
-256,-380,15956,256,582,-71
-256,-420,15744,256,585,-75
-256,-376,15992,511,590,-83
-256,-392,15676,511,563,-93
-256,-392,15972,256,560,-117
-256,-388,15956,256,569,-106
-256,-408,15708,511,586,-84
-256,-384,15940,256,598,-88
-256,-432,15932,256,562,-95
-256,-376,15728,256,563,-77
-256,-364,15996,256,595,-73
-256,-440,16016,256,562,-90
-256,-408,15976,256,569,-91
-256,-412,15704,511,571,-76
-256,-404,15940,256,609,-53
-256,-416,15720,511,570,-58
-256,-360,15716,511,556,-100
-256,-408,15952,256,582,-97
-256,-384,15980,256,581,-81
-256,-416,15652,511,563,-96
-256,-364,16024,256,572,-65
-256,-412,15708,511,576,-80
-256,-344,15736,511,579,-81
-256,-444,16000,256,568,-84
-256,-428,15732,511,563,-88
-256,-432,15728,511,586,-50
-256,-420,15952,256,588,-82
-256,-336,15752,511,570,-82
-256,-376,15980,256,580,-83
-256,-460,15940,256,569,-75
-256,-452,15968,256,565,-73
-256,-404,15988,256,568,-86
-256,-388,15736,511,583,-84
-256,-460,15760,511,579,-90
-256,-344,15652,511,568,-87
-256,-384,15732,511,560,-73
-256,-388,15956,256,574,-81
-256,-436,15792,511,577,-79
-256,-460,15940,256,556,-67
-256,-372,15672,511,582,-57
-256,-400,15976,256,592,-92
-256,-360,15768,256,583,-65
-256,-424,15952,256,563,-97
-256,-400,15732,511,571,-79
-256,-432,15744,256,566,-86
-256,-384,16024,256,572,-45
-256,-364,15672,511,587,-110
-256,-360,15740,511,574,-100
-256,-404,16004,511,568,-75
-256,-392,15700,511,573,-78
-256,-424,16008,256,604,-75
-256,-404,15764,511,573,-87
-256,-416,15716,511,546,-77
-256,-444,15988,256,572,-77
-256,-420,15696,511,590,-96
-256,-436,15712,511,558,-78
-256,-388,15676,511,580,-61
-256,-380,15748,511,579,-64
-256,-368,15988,256,565,-84
-256,-404,15740,511,567,-98
-256,-352,15740,511,572,-105
-256,-368,15696,511,567,-97
-256,-448,15756,511,569,-63
-256,-360,15728,511,572,-93
-256,-432,15688,511,578,-72
-256,-388,15944,256,579,-77
-256,-356,15960,256,566,-69
-256,-408,15688,511,562,-85
-256,-408,15764,511,580,-97
-256,-412,15760,511,591,-103
-256,-376,15684,511,587,-68
-256,-432,15656,256,569,-94
-256,-356,15936,256,555,-83
-256,-372,15732,511,562,-84
-256,-364,16020,256,584,-105
-256,-352,15704,511,588,-102
-256,-424,15732,256,557,-84
-256,-352,15992,256,574,-79
-256,-372,15748,511,568,-66
-256,-428,16000,256,597,-82
-256,-364,16068,256,589,-77
-256,-364,15744,256,572,-88
-256,-368,15976,256,572,-81
-256,-368,15672,511,575,-92
-256,-436,15744,511,598,-86
-256,-404,15980,256,572,-92
-256,-420,15696,511,554,-77
-256,-384,15712,511,565,-98
-256,-384,15888,256,591,-94
-256,-464,15992,256,564,-106
-256,-392,16016,256,603,-92
-256,-376,15744,511,579,-87
-256,-344,15700,511,564,-82
-256,-416,15748,511,576,-91
-256,-424,16032,256,582,-81
-256,-400,15736,511,584,-74
-256,-332,15688,511,576,-74
-256,-452,15652,511,573,-75
-256,-448,15944,256,558,-94
-256,-416,15748,256,553,-108
-256,-376,15700,511,551,-84
-256,-440,15696,511,574,-84
-256,-408,15716,511,580,-74
-256,-440,16028,256,587,-73
-256,-392,15696,511,596,-67
-256,-364,15692,511,590,-105
-256,-356,15760,511,595,-96
-256,-384,15700,511,579,-58
-256,-384,15728,511,580,-82
-256,-416,15912,256,561,-104
-256,-428,15720,511,567,-87
-256,-416,15728,511,605,-75
-256,-316,15728,511,575,-95
-256,-380,15664,511,574,-88
-256,-396,16020,256,567,-79
-256,-384,15712,511,549,-113
-256,-436,15972,256,576,-79
-256,-384,15688,511,591,-96
-256,-440,15964,256,602,-86
-256,-396,15952,256,566,-110
-256,-396,15740,511,562,-67
-256,-392,15716,511,560,-70
-256,-416,15688,511,586,-87
-256,-456,15744,511,594,-78
-256,-404,15712,511,589,-65
-256,-400,15732,511,591,-76
-256,-436,15688,511,574,-89
-256,-372,15952,256,562,-70
-256,-444,15728,511,574,-102
-256,-440,15676,511,564,-73
-256,-396,15744,511,585,-78
-256,-380,15680,511,578,-94
-256,-348,15744,511,570,-112
-256,-372,15692,511,579,-125
-256,-392,15716,511,607,-84
-256,-336,15988,256,591,-77
-256,-408,15976,256,588,-64
-256,-372,15764,511,572,-83
-256,-380,15728,511,553,-81
-256,-384,15988,256,543,-76
-256,-392,15772,511,579,-91
-256,-388,16016,256,594,-86
-256,-416,15720,511,585,-73
-256,-436,15724,511,561,-68
-256,-356,15824,511,587,-66
-256,-440,15976,256,576,-79
-256,-404,15980,256,556,-100
-256,-432,15924,256,576,-67
-256,-400,15712,511,579,-83
-256,-448,15772,511,580,-104
-256,-420,16040,256,566,-69
-256,-396,15748,511,586,-62
-256,-396,15800,511,601,-78
-256,-316,15756,511,587,-94
-256,-384,15892,256,567,-84
-256,-380,15952,256,582,-72
-256,-392,15972,256,576,-110
-256,-376,15784,511,560,-94
-256,-396,15996,256,582,-73
-256,-424,15692,511,589,-64
-256,-424,15684,511,571,-76
-256,-300,15700,511,573,-75
-256,-404,15776,511,569,-85
-256,-364,15980,256,580,-71
-256,-408,15644,256,591,-89
-256,-464,15720,511,573,-71
-256,-384,15992,256,565,-72
-256,-404,15980,256,571,-77
-256,-472,15700,511,591,-83
-256,-392,15720,511,560,-78
-256,-360,15776,511,565,-68
-256,-404,15680,511,571,-91
-256,-396,15940,256,573,-98
-256,-376,15712,256,576,-70
-256,-360,15764,511,586,-82
-256,-364,15728,511,567,-88
-256,-444,15996,256,568,-90
-256,-352,15752,511,569,-98
-256,-416,15676,511,567,-73
-256,-404,15812,511,581,-101
-256,-384,15952,256,586,-78
-256,-424,15736,511,599,-74
-256,-400,15724,511,575,-78
-256,-392,15696,511,575,-96
-256,-332,15688,511,580,-96
-256,-380,15716,511,587,-64
-256,-376,15732,511,584,-88
-256,-428,15968,256,585,-77
-256,-348,15668,511,587,-69
-256,-436,15952,256,580,-77
-256,-452,15764,511,592,-97
-256,-460,15728,511,602,-94
-256,-392,15720,511,571,-85
-256,-396,15992,256,585,-105
-256,-360,15724,511,587,-92
-256,-392,15884,256,565,-74
-256,-368,15972,256,581,-63
-256,-348,16040,256,568,-69
-256,-412,15952,256,564,-56
-256,-376,15676,256,576,-92
-256,-408,16008,256,575,-75
-256,-348,15668,511,573,-72
-256,-416,15704,511,562,-82
-256,-448,15668,511,568,-64
-256,-356,15952,256,583,-54
-256,-308,15748,511,579,-83
-256,-368,15764,511,574,-103
-256,-420,15692,511,575,-99
-256,-420,15700,256,572,-105
-256,-404,16008,256,569,-89
-256,-364,15808,511,571,-87
-256,-392,15736,511,571,-100
-256,-360,15728,511,597,-99
-256,-396,15972,256,600,-118
-256,-428,15952,256,584,-87
-256,-392,15988,256,566,-69
-256,-364,15796,511,564,-76
-256,-356,15700,511,564,-81
-256,-428,15956,256,576,-76
-256,-400,16000,256,592,-62
-256,-472,15980,256,596,-94
-256,-376,15672,511,589,-94
-256,-412,15672,511,568,-71
-256,-416,15920,256,586,-63
-256,-352,15684,511,568,-59
-256,-376,15700,511,571,-84
-256,-412,16036,256,585,-84
-256,-412,15764,511,562,-74
-256,-420,16004,256,578,-66
-256,-412,15744,511,596,-71
-256,-400,15740,511,587,-88
-256,-380,15960,256,595,-85
-256,-396,15664,511,587,-72
-256,-392,16036,256,581,-79
-256,-364,15692,256,568,-97
-256,-424,15736,511,561,-53
-256,-432,15960,256,563,-86
-256,-412,15908,256,567,-84
-256,-408,15724,511,575,-80
-256,-380,15664,511,585,-74
-256,-412,15928,256,579,-71
-256,-380,15736,511,579,-78
-256,-384,15704,511,567,-72
-256,-348,15692,511,559,-74
-256,-412,15668,511,569,-88
-256,-432,15676,511,580,-83
-256,-424,15744,511,576,-76
-256,-344,15696,511,580,-73
-256,-368,16004,256,584,-62
-256,-384,15748,511,573,-87
-256,-440,15672,511,556,-96
-256,-384,15656,511,558,-77
-256,-436,15984,256,574,-80
-256,-348,15692,511,570,-83
-256,-408,15720,256,575,-68
-256,-440,15972,511,585,-73
-256,-376,15744,511,576,-95
-256,-432,15664,511,575,-87
-256,-368,15704,511,570,-74
-256,-412,15740,511,581,-53
-256,-392,15724,511,585,-73
-256,-376,16036,256,582,-93
-256,-420,15948,256,574,-72
-256,-412,15708,511,582,-62
-256,-388,15704,511,606,-76
-256,-388,15980,256,582,-70
-256,-348,15748,511,564,-74
-256,-392,15672,511,573,-50
-256,-420,15736,511,580,-88
-256,-376,15736,511,601,-92
-256,-396,15720,511,578,-84
-256,-320,15708,511,579,-80
-256,-392,15740,511,570,-98
-256,-336,15744,511,586,-89
-256,-412,15960,256,587,-66
-256,-372,16000,256,581,-67
-256,-320,16012,256,584,-64
-256,-428,16020,256,591,-77
-256,-432,15728,511,571,-96
-256,-424,15988,256,582,-101
-256,-372,15928,256,583,-82
-256,-364,15712,511,590,-87
-256,-440,15936,256,557,-72
-256,-456,15964,256,576,-56
-256,-364,15748,511,587,-84
-256,-408,15744,511,583,-81
-256,-364,15980,256,585,-96
-256,-456,15956,256,572,-99
-256,-400,15704,256,556,-84
-256,-464,15768,511,593,-63
-256,-356,15972,511,569,-94
-256,-428,15680,256,548,-89
-256,-400,15744,511,563,-81
-256,-412,15724,511,568,-66
-256,-376,15684,511,576,-82
-256,-348,15760,511,565,-79
-256,-408,15936,256,581,-83
-256,-412,15756,511,575,-104
-256,-424,15704,511,583,-68
-256,-344,15740,511,576,-63
-256,-420,15772,511,561,-93
-256,-352,15736,511,579,-78
-256,-372,15784,511,599,-126
-256,-376,15952,256,577,-69
-256,-444,15696,511,582,-72
-256,-404,15992,256,589,-80
-256,-364,15948,256,578,-102
-256,-336,15708,511,584,-96
-256,-360,15992,256,573,-89
-256,-376,15724,511,582,-91
-256,-348,15908,256,588,-85
-256,-364,16024,256,571,-68
-256,-344,15716,511,575,-77
-256,-460,15820,511,568,-62
-256,-420,15968,256,570,-67
-256,-416,15708,511,581,-54
-256,-356,15704,511,558,-96
-256,-404,15980,256,597,-93
-256,-424,15688,511,583,-102
-256,-424,15696,511,563,-78
-256,-428,16036,256,584,-78
-256,-372,15740,256,561,-77
-256,-424,15676,511,551,-76
-256,-416,15956,256,584,-65
-256,-356,15700,511,601,-78
-256,-380,15684,511,565,-80
-256,-448,15748,511,564,-45
-256,-376,15740,511,600,-59
-256,-416,15708,511,566,-77
-256,-372,15668,511,582,-60
-256,-416,15768,256,577,-70
-256,-372,15960,256,578,-77
-256,-336,15688,511,573,-97
-256,-340,15728,511,586,-77
-256,-400,15636,511,583,-48
-256,-404,15668,511,575,-75
-256,-376,15748,511,574,-79
-256,-336,15664,511,554,-101
-256,-424,15984,256,578,-103
-256,-400,15676,511,580,-83
-256,-384,15724,511,560,-89
-256,-368,15996,256,569,-67
-256,-344,15732,511,579,-73
-256,-392,15760,511,603,-87
-256,-380,15708,511,586,-71
-256,-388,15752,511,580,-74
-256,-384,16020,256,574,-78
-256,-320,15940,256,571,-75
-256,-380,15708,511,561,-91
-256,-404,15984,256,586,-97
-256,-408,15964,256,556,-84
-256,-404,15988,511,584,-79
-256,-404,15724,511,588,-78
-256,-352,15920,256,591,-85
-256,-388,15960,256,577,-63
-256,-356,15700,511,556,-113
-256,-320,16068,256,577,-83
-256,-392,15696,511,563,-86
-256,-404,15940,256,579,-71
-256,-412,16012,256,578,-79
-256,-452,15764,511,581,-101
-256,-332,15760,511,566,-98
-256,-480,15888,256,571,-93
-256,-316,15712,511,568,-85
-256,-396,15764,511,573,-100
-256,-388,15752,256,577,-78
-256,-440,16004,511,576,-63
-256,-340,15688,511,581,-56
-256,-452,15968,256,564,-94
-256,-384,15720,511,567,-102
-256,-436,16000,256,571,-59
-256,-408,15668,256,589,-99
-256,-460,15676,511,585,-91
-256,-332,15728,511,603,-73
-256,-424,15968,256,590,-52
-256,-400,15708,511,587,-84
-256,-404,15984,256,591,-60
-256,-388,15996,256,569,-85
-256,-360,15924,256,567,-89
-256,-444,15720,511,557,-84
-256,-360,15684,511,558,-85
-256,-388,15972,256,588,-82
-256,-432,15704,511,583,-82
-256,-336,15756,511,588,-95
-256,-388,15672,511,570,-91
-256,-424,15996,256,583,-71
-256,-444,15780,511,557,-103
-256,-452,15904,256,566,-87
-256,-360,15712,256,572,-94
-256,-324,15692,511,583,-101
-256,-372,15736,511,583,-84
-256,-408,15968,256,588,-63
-256,-348,15716,511,596,-67
-256,-388,15976,256,582,-64
-256,-380,15716,511,581,-77
-256,-456,16004,256,592,-63
-256,-348,15812,511,578,-94
-256,-496,15752,511,585,-80
-256,-380,15728,511,582,-89
-256,-376,15700,511,619,-90
-256,-396,15984,256,578,-86
-256,-376,16000,256,571,-84
-256,-408,15980,256,576,-84
-256,-344,15712,511,571,-71
-256,-376,15728,511,583,-58
-256,-392,15740,511,568,-74
-256,-388,15772,511,589,-64
-256,-432,15676,256,584,-90
-256,-388,16012,511,594,-67
-256,-368,15720,511,600,-101
-256,-396,15776,511,571,-96
-256,-356,15708,256,598,-89
-256,-372,15676,511,575,-86
-256,-404,15776,511,561,-104
-256,-404,15732,511,587,-94
-256,-376,15976,256,587,-80
-256,-412,15956,256,584,-88
-256,-416,15788,511,584,-79
-256,-356,15664,511,580,-79
-256,-408,15676,511,561,-44
-256,-400,15676,256,570,-66
-256,-360,15960,256,580,-70
-256,-348,15712,511,568,-85
-256,-368,15708,511,588,-96
-256,-456,15716,511,584,-86
-256,-388,15696,511,558,-72
-256,-408,15712,511,560,-65
-256,-388,15704,511,575,-73
-256,-372,15696,511,581,-90
-256,-424,15996,256,566,-87
-256,-372,15972,256,579,-90
-256,-376,16012,256,588,-77
-256,-412,15720,511,575,-80
-256,-360,15680,511,570,-93
-256,-384,15740,511,545,-91
-256,-356,15956,256,588,-86
-256,-384,15712,511,576,-92
-256,-456,15700,511,581,-79
-256,-440,15704,511,567,-100
-256,-436,15940,256,601,-85
-256,-400,15932,256,577,-99
-256,-392,15680,511,580,-62
-256,-416,15992,256,589,-75
-256,-412,15972,256,578,-103
-256,-460,15944,256,585,-72
-256,-376,15712,511,573,-65
-256,-436,15964,256,593,-82
-256,-360,15944,256,587,-69
-256,-424,15916,256,580,-59
-256,-460,15980,256,577,-60
-256,-400,15732,511,598,-71
-256,-368,15948,256,562,-90
-256,-392,15964,256,590,-79
-256,-456,15696,511,582,-80
-256,-428,16004,256,576,-60
-256,-384,15684,511,578,-99
-256,-384,15744,511,567,-92
-256,-344,15672,511,572,-103
-256,-424,15684,511,579,-92
-256,-400,16004,256,582,-79
-256,-396,15696,256,579,-67
-256,-440,15976,256,579,-68
-256,-444,15980,256,586,-84
-256,-400,15632,256,580,-66
-256,-408,15980,256,591,-75
-256,-372,15728,511,577,-75
-256,-408,15708,511,577,-64
-256,-332,15660,511,589,-102
-256,-424,15772,511,585,-101
-256,-380,15680,511,583,-96
-256,-360,15720,511,575,-70
-256,-416,15716,511,573,-76
-256,-416,15740,256,558,-89
-256,-340,15944,256,579,-80
-256,-404,15976,256,577,-70
-256,-424,15976,256,582,-92
-256,-396,15720,511,560,-94
-256,-340,15732,511,560,-66
-256,-428,15748,511,582,-73
-256,-424,15656,511,584,-73
-256,-372,15708,511,574,-69
-256,-376,15992,256,591,-79
-256,-344,15752,511,594,-88
-256,-396,15996,256,588,-91
-256,-384,15684,511,578,-82
-256,-360,15716,511,573,-66
-256,-368,15732,511,560,-71
-256,-436,15688,511,559,-87
-256,-364,15960,256,598,-90
-256,-388,15712,511,581,-89
-256,-432,15748,511,575,-60
-256,-404,15720,511,586,-53
-256,-464,16008,256,590,-75
-256,-376,15704,511,568,-73
-256,-324,15716,511,582,-68
-256,-308,15720,511,538,-83
-256,-420,15924,256,559,-85
-256,-360,15708,511,593,-51
-256,-444,15936,256,588,-77
-256,-424,15668,511,583,-56
-256,-376,15680,511,570,-79
-256,-360,15732,511,566,-70
-256,-396,15772,511,590,-74
-256,-388,15920,256,576,-84
-256,-368,15960,256,553,-82
-256,-408,15680,511,587,-68
-256,-392,15964,256,597,-91
-256,-360,15928,256,598,-76
-256,-424,15696,511,596,-90
-256,-420,15740,511,591,-85
-256,-400,15732,511,582,-87
-256,-380,15712,511,581,-94
-256,-384,15932,256,584,-106
-256,-428,15676,511,567,-90
-256,-440,15744,511,579,-72
-256,-404,15948,256,575,-73
-256,-332,15752,511,586,-104
-256,-336,15716,511,586,-77
-256,-388,15684,511,568,-97
-256,-352,15740,511,577,-88
-256,-404,15708,511,578,-79
-256,-452,15736,511,573,-95
-256,-368,16012,256,575,-98
-256,-352,15772,511,585,-68
-256,-472,15992,256,580,-76
-256,-396,15744,511,587,-72
-256,-384,15716,511,581,-78
-256,-432,15984,256,560,-67
-256,-380,15968,256,580,-77
-256,-388,15964,256,584,-81
-256,-372,15720,511,576,-65
-256,-380,16004,256,580,-79
-256,-404,16004,256,585,-75
-256,-372,15716,511,588,-65
-256,-432,16012,256,576,-66
-256,-392,15692,511,597,-89
-256,-428,15712,511,591,-88
-256,-412,16004,256,583,-90
-256,-408,15752,511,561,-98
-256,-392,15752,511,569,-110
-256,-448,15992,256,567,-87
-256,-440,15744,511,596,-76
-256,-344,15984,256,582,-86
-256,-420,15732,511,573,-83
-256,-396,15800,511,584,-100
-256,-420,15764,511,593,-80
-256,-332,15960,256,603,-62
-256,-420,15732,511,559,-123
-256,-408,15704,511,563,-104
-256,-504,15988,256,568,-78
-256,-400,15720,511,556,-78
-256,-360,15952,256,567,-90
-256,-372,15732,511,579,-86
-256,-348,16032,256,591,-63
-256,-416,15748,511,566,-80
-256,-412,15716,511,565,-90
-256,-412,15708,511,567,-71
-256,-404,15724,511,590,-94
-256,-336,16008,256,563,-70
-256,-396,15776,511,581,-95
-256,-424,15740,511,602,-83
-256,-412,15724,511,585,-69
-256,-384,15988,256,595,-64
-256,-408,15772,511,584,-71
-256,-444,15756,511,587,-60
-256,-368,15904,256,580,-74
-256,-404,16032,256,558,-90
-256,-448,15728,511,577,-95
-256,-364,15788,511,576,-78
-256,-408,15724,511,578,-64
-256,-424,15984,256,584,-79
-256,-420,16016,256,579,-94
-256,-372,15712,511,589,-81
-256,-400,16028,256,599,-73
-256,-364,15704,511,589,-84
-256,-436,15760,511,564,-76
-256,-404,15724,511,565,-107
-256,-412,15988,256,575,-92
-256,-424,15696,511,572,-65
-256,-364,15760,511,593,-60
-256,-364,15712,511,591,-72
-256,-440,15732,511,587,-86
-256,-376,15728,511,568,-94
-256,-412,16028,256,584,-84
-256,-440,15704,511,570,-88
-256,-424,15728,511,545,-109
-256,-368,15736,511,553,-60
-256,-416,15964,256,569,-66
-256,-456,15708,511,568,-98
-256,-312,15984,256,584,-84
-256,-388,15980,256,587,-83
-256,-384,15720,511,585,-80
-256,-428,15700,511,596,-71
-256,-364,15656,511,577,-75
-256,-392,15684,511,582,-93
-256,-364,16072,256,605,-90
-256,-428,15696,511,584,-96
-256,-396,15956,256,583,-88
-256,-420,15784,511,567,-62
-256,-408,15752,511,572,-68
-256,-412,15700,511,589,-89
-256,-408,15736,511,574,-80
-256,-388,15688,511,581,-110
-256,-476,15756,511,571,-100
-256,-404,15984,256,581,-77
-256,-448,15776,511,578,-68
-256,-444,15984,256,593,-52
-256,-436,16004,256,565,-93
-256,-352,15696,256,583,-91
-256,-364,15700,511,586,-71
-256,-432,15972,256,585,-81
-256,-432,15688,511,584,-102
-256,-408,15972,256,572,-94
-256,-424,15676,511,571,-65
-256,-404,16000,256,594,-92
-256,-356,15944,256,546,-81
-256,-372,15752,511,575,-73
-256,-372,15768,511,565,-67
-256,-412,15968,256,554,-92
-256,-468,15752,511,577,-80
-256,-416,15692,511,578,-81
-256,-452,15956,256,599,-95
-256,-464,15972,256,579,-67
-256,-352,15796,511,579,-65
-256,-404,16008,256,607,-91
-256,-436,16012,256,592,-101
-256,-376,15668,511,583,-77
-256,-472,15704,511,570,-77
-256,-400,15740,511,594,-87
-256,-408,15968,256,603,-75
-256,-388,15712,511,569,-80
-256,-400,15940,256,548,-99
-256,-428,15700,511,600,-86
-256,-384,15736,511,589,-74
-256,-436,15992,256,578,-92
-256,-328,15712,511,572,-99
-256,-352,15960,256,579,-80
-256,-436,15996,256,564,-100
-256,-448,15736,511,564,-92
-256,-372,15904,256,564,-85
-256,-420,15664,511,563,-89
-256,-396,15764,511,576,-56
-256,-404,15680,511,557,-104
-256,-388,15932,256,573,-83
-256,-436,15648,511,578,-59
-256,-480,16052,256,567,-68
-256,-404,15932,256,569,-109
-256,-416,15712,511,583,-95
-256,-436,15940,256,571,-89
-256,-416,15744,511,568,-65
-256,-448,15700,511,583,-74
-256,-432,15724,511,600,-87
-256,-448,15748,511,576,-88
-256,-384,15728,511,553,-103
-256,-340,15976,256,571,-83
-256,-400,16016,256,579,-62
-256,-400,15700,511,552,-97
-256,-384,15744,511,582,-74
-256,-340,15688,511,576,-80
-256,-364,16028,256,596,-94
-256,-464,15704,511,581,-78
-256,-424,15708,511,569,-105
-256,-424,15756,511,589,-89
-256,-348,15692,511,586,-81
-256,-372,15704,511,556,-89
-256,-388,15912,256,565,-95
-256,-444,15968,256,596,-95
-256,-416,15736,511,596,-66
-256,-408,15740,511,580,-104
-256,-384,15752,511,570,-99
-256,-396,15952,256,600,-105
-256,-408,15664,511,601,-86
-256,-380,15736,511,584,-67
-256,-476,15708,511,568,-79
-256,-408,15724,511,586,-83
-256,-380,15760,256,565,-79
-256,-396,15676,511,573,-94
-256,-356,16004,256,581,-86
-256,-376,15996,256,586,-76
-256,-456,15692,511,588,-88
-256,-412,15692,511,554,-92
-256,-464,15932,256,571,-74
-256,-400,15732,511,577,-99
-256,-428,15800,511,587,-76
-256,-368,15740,511,575,-80
-256,-352,15956,256,589,-78
-256,-340,15684,511,569,-71
-256,-392,15952,256,561,-82
-256,-396,15708,511,570,-95
-256,-428,15992,256,577,-76
-256,-356,15708,256,597,-103
-256,-384,15988,256,582,-104
-256,-360,16044,256,575,-105
-256,-416,15996,256,574,-80
-256,-436,15768,256,574,-110
-256,-448,15732,511,589,-67
-256,-400,16000,256,574,-81
-256,-352,15980,256,563,-72
-256,-368,15720,511,575,-78
-256,-352,15744,511,598,-89
-256,-372,15716,511,598,-67
-256,-440,15716,511,603,-89
-256,-344,15732,511,562,-75
-256,-412,15708,511,573,-93
-256,-368,16000,256,568,-103
-256,-444,16032,256,543,-97
-256,-396,15672,511,584,-60
-256,-440,15712,511,581,-78
-256,-448,15728,511,574,-69
-256,-420,15652,511,555,-95
-256,-332,15948,256,556,-103
-256,-364,15956,256,576,-75
-256,-440,15728,511,568,-78
-256,-320,15944,256,565,-101
-256,-376,16008,256,571,-90
-256,-376,15992,256,582,-76
-256,-456,15700,511,578,-74
-256,-444,15748,511,581,-82
-256,-408,15692,511,578,-73
-256,-352,15676,511,584,-85
-256,-396,15992,256,582,-74
-256,-408,15752,511,605,-82
-256,-352,16012,256,589,-91
-256,-328,15980,256,574,-91
-256,-344,15752,511,586,-66
-256,-388,15744,511,604,-73
-256,-376,15736,511,592,-72
-256,-404,15724,511,574,-48
-256,-408,15688,511,575,-86
-256,-440,15972,256,576,-87
-256,-344,15948,256,568,-75
-256,-404,15712,511,581,-73
-256,-384,15712,511,583,-77
-256,-396,15724,511,590,-45
-256,-440,15728,511,575,-65
-256,-380,15740,511,587,-86
-256,-376,16032,256,572,-55
-256,-412,15724,511,574,-66
-256,-348,15724,511,596,-88
-256,-416,15704,511,574,-92
-256,-444,15720,511,577,-85
-256,-392,15964,256,567,-60
-256,-364,15720,511,563,-77
-256,-408,15708,511,596,-93
-256,-400,16008,256,597,-89
-256,-348,15696,511,590,-106
-256,-392,15944,256,576,-73
-256,-372,15668,511,590,-74
-256,-424,15716,511,596,-89
-256,-448,15960,256,562,-71
-256,-424,15684,511,580,-70
-256,-408,16060,256,573,-57
-256,-348,15692,511,585,-76
-256,-396,15980,256,561,-68
-256,-448,15968,256,566,-85
-256,-352,16000,256,574,-98
-256,-464,15956,256,569,-71
-256,-380,15756,511,574,-77
-256,-424,15744,511,584,-77
-256,-424,15992,256,571,-83
-256,-396,15724,511,568,-85
-256,-384,15932,256,576,-76
-256,-408,15936,256,577,-61
-256,-384,15772,511,576,-51
-256,-364,15708,511,589,-71
-256,-416,15788,511,555,-100
-256,-368,15784,511,605,-88
-256,-416,15920,256,605,-74
-256,-356,15632,511,578,-82
-256,-396,15972,256,582,-77
-256,-396,15944,256,595,-83
-256,-392,15740,511,579,-82
-256,-444,15956,256,566,-71
-256,-404,15708,511,581,-76
-256,-400,15944,256,563,-77
-256,-496,15736,256,546,-81
-256,-420,15660,511,574,-81
-256,-376,15748,511,577,-83
-256,-376,15712,511,570,-91
-256,-436,15740,511,574,-94
-256,-360,15988,256,565,-73
-256,-356,15736,511,569,-75
-256,-400,15972,256,583,-74
-256,-380,15748,511,595,-56
-256,-392,15736,511,573,-79
-256,-436,15952,256,580,-78
-256,-420,15716,256,577,-106
-256,-480,15932,256,579,-84
-256,-392,15988,256,591,-64
-256,-356,15976,256,597,-75
-256,-412,15964,256,573,-69
-256,-436,15704,511,583,-61
-256,-396,15676,511,558,-83
-256,-436,15728,511,561,-94
-256,-448,15720,511,580,-83
-256,-380,15920,256,589,-116
-256,-428,15728,511,598,-110
-256,-416,15940,256,582,-99
-256,-384,15956,256,598,-61
-256,-312,15976,256,595,-79
-256,-392,15948,256,578,-85
-256,-424,15692,511,563,-98
-256,-420,15748,511,575,-94
-256,-416,15716,511,583,-89
-256,-460,15944,256,575,-95
-256,-388,15712,511,565,-118
-256,-340,15744,511,591,-99
-256,-452,15760,511,571,-64
-256,-424,15720,511,562,-87
-256,-408,16012,256,565,-85
-256,-424,15692,511,595,-105
-256,-412,15980,256,621,-72
-256,-400,15936,256,595,-57
-256,-408,15736,511,561,-104
-256,-428,15956,256,578,-96
-256,-436,15648,511,586,-88
-256,-456,15932,256,587,-48
-256,-364,15636,511,602,-77
-256,-476,15712,511,588,-79
-256,-380,16000,256,578,-63
-256,-384,15672,511,575,-94
-256,-400,15920,256,583,-91
-256,-424,15992,256,554,-89
-256,-388,15680,511,560,-84
-256,-420,16000,256,571,-68
-256,-400,15680,511,558,-83
-256,-336,15732,511,589,-74
-256,-404,15748,511,598,-66
-256,-408,16020,256,570,-67
-256,-392,15748,511,572,-64
-256,-420,15984,256,580,-61
-256,-440,15960,256,575,-79
-256,-348,15676,511,580,-93
-256,-388,15952,256,606,-76
-256,-432,15948,256,573,-108
-256,-400,15804,511,580,-93
-256,-388,15764,511,571,-77
-256,-360,15724,511,598,-77
-256,-392,16036,256,580,-84
-256,-420,15956,256,583,-67
-256,-404,15732,511,587,-63
-256,-396,16044,256,573,-90
-256,-404,15980,256,598,-102
-256,-428,15704,511,585,-80
-256,-436,15696,511,602,-71
-256,-368,15620,511,590,-89
-256,-416,15684,511,577,-107
-256,-336,15740,256,583,-85
-256,-412,15748,511,590,-69
-256,-400,15716,511,575,-56
-256,-356,15944,256,581,-87
-256,-392,15804,511,604,-107
-256,-360,15988,256,593,-95
-256,-404,16020,256,571,-73
-256,-436,15744,511,583,-92
-256,-388,15732,511,583,-59
-256,-388,16056,256,576,-72
-256,-392,16036,256,587,-58
-256,-412,15740,511,593,-66
-256,-368,15676,511,598,-98
-256,-360,16008,256,581,-73
-256,-400,15692,511,596,-85
-256,-396,15776,511,573,-71
-256,-392,15712,511,572,-86
-256,-440,15936,256,566,-78
-256,-396,15880,256,578,-93
-256,-436,15720,511,581,-96
-256,-428,15700,511,582,-96
-256,-384,15700,511,601,-80
-256,-404,15752,511,581,-86
-256,-432,15744,511,573,-56
-256,-424,15992,256,584,-78
-256,-412,15680,511,578,-75
-256,-400,15940,256,581,-47
-256,-404,15972,256,581,-81
-256,-408,15720,511,603,-98
-256,-424,15988,256,585,-84
-256,-396,15964,256,595,-66
-256,-420,15720,511,568,-83
-256,-448,15708,511,581,-81
-256,-384,15700,511,576,-91
-256,-360,15956,256,588,-81
-256,-356,15732,256,582,-72
-256,-372,15668,511,568,-90
-256,-388,15728,511,589,-72
-256,-368,15692,511,576,-61
-256,-412,15672,256,591,-53
-256,-440,15660,511,579,-65
-256,-388,15672,511,563,-87
-256,-380,16060,256,559,-69
-256,-364,15692,256,563,-78
-256,-340,15964,256,570,-69
-256,-392,15964,256,581,-61
-256,-396,15732,511,580,-76
-256,-368,15704,511,578,-83
-256,-372,15692,256,572,-87
-256,-428,15776,511,581,-90
-256,-428,16004,256,591,-86
-256,-412,15672,511,582,-99
-256,-352,15724,511,578,-70
-256,-388,15812,511,606,-70
-256,-404,15744,511,585,-105
-256,-380,16068,256,582,-82
-256,-380,15712,511,593,-65
-256,-368,15720,511,575,-106
-256,-380,15992,511,578,-77
-256,-400,15720,511,580,-56
-256,-368,15972,256,586,-91
-256,-384,15744,511,587,-78
-256,-460,15720,511,564,-92
-256,-424,15708,511,571,-111
-256,-424,15960,256,583,-72
-256,-460,15972,256,587,-56
-256,-428,15684,511,578,-89
-256,-332,15752,511,583,-75
-256,-404,15996,256,575,-86
-256,-380,15680,511,586,-80
-256,-404,15676,511,567,-84
-256,-372,16016,256,569,-108
-256,-392,15696,511,575,-106
-256,-376,15968,256,577,-93
-256,-452,15724,511,573,-75
-256,-412,15968,256,577,-103
-256,-408,16004,256,586,-91
-256,-424,15680,256,563,-72
-256,-368,15704,511,578,-101
-256,-432,16004,256,585,-67
-256,-380,15988,256,565,-73
-256,-448,15956,256,576,-87
-256,-404,15720,511,565,-97
-256,-464,15752,511,575,-94
-256,-372,15984,256,601,-89
-256,-440,15740,511,591,-78
-256,-420,15676,511,570,-81
-256,-380,16016,256,560,-79
-256,-352,15688,511,576,-82
-256,-428,15944,256,590,-78
-256,-436,15724,511,575,-90
-256,-428,15696,511,585,-98
-256,-424,15988,256,594,-65
-256,-436,15716,511,576,-79
-256,-392,15752,511,566,-87
-256,-364,15764,511,578,-84
-256,-392,15756,511,588,-69
-256,-456,15644,511,568,-80
-256,-416,15932,256,554,-86
-256,-380,16024,256,574,-74
-256,-436,15736,256,582,-62
-256,-368,15704,511,577,-76
-256,-400,15720,511,584,-82
-256,-384,15748,511,563,-82
-256,-424,15732,511,569,-61
-256,-456,15956,256,573,-70
-256,-388,15692,511,587,-65
-256,-408,15680,511,565,-70
-256,-424,15732,511,557,-91
-256,-356,15980,256,563,-89
-256,-396,15696,511,584,-58
-256,-432,15756,511,587,-58
-256,-372,15744,511,579,-85
-256,-412,16004,256,565,-84
-256,-444,15992,256,560,-78
-256,-396,15692,511,579,-90
-256,-356,16024,256,565,-77
-256,-356,15740,511,561,-90
-256,-428,15728,511,584,-108
-256,-360,15740,511,573,-92
-256,-408,16028,256,574,-85
-256,-388,15760,511,573,-80
-256,-344,15736,511,560,-83
-256,-392,15972,256,575,-57
-256,-384,15696,256,556,-74
-256,-392,15744,511,572,-82
-256,-432,15952,256,583,-92
-256,-396,15704,511,586,-91
-256,-424,15928,256,578,-79
-256,-404,15936,256,588,-61
-256,-400,15952,256,574,-71
-256,-400,15748,511,586,-60
-256,-380,15756,511,597,-82
-256,-388,15748,511,580,-91
-256,-444,15696,511,588,-94
-256,-440,15756,511,565,-83
-256,-396,15704,511,578,-71
-256,-392,15960,256,578,-89
-256,-420,15736,511,575,-84
-256,-388,15988,256,586,-82
-256,-404,15712,511,591,-85
-256,-388,15924,256,549,-75
-256,-372,15956,256,564,-103
-256,-456,15664,511,569,-103
-256,-352,15968,256,557,-72
-256,-364,15968,256,573,-77
-256,-372,15692,511,573,-82
-256,-372,15964,256,588,-81
-256,-316,15680,511,570,-79
-256,-412,15712,511,569,-78
-256,-360,15712,511,588,-88
-256,-360,15952,256,572,-84
-256,-432,15956,256,558,-89
-256,-452,16040,256,571,-103
-256,-368,16036,256,591,-52
-256,-344,15656,511,574,-65
-256,-420,16000,256,579,-93
-256,-380,15952,256,562,-82
-256,-336,15700,511,572,-77
-256,-416,15984,256,587,-80
-256,-460,15748,511,610,-87
-256,-396,15732,511,576,-78
-256,-376,15720,511,558,-71
-256,-364,15980,256,576,-83
-256,-440,15696,511,556,-95
-256,-388,15680,256,572,-68
-256,-372,15992,256,588,-63
-256,-392,15732,511,574,-90
-256,-368,15720,511,557,-98
-256,-400,15948,256,569,-73
-256,-356,15932,256,571,-76
-256,-380,16012,256,572,-51
-256,-420,15756,511,569,-69
-256,-372,15728,511,563,-107
-256,-436,15720,511,569,-85
-256,-432,15652,256,593,-87
-256,-428,16040,256,576,-95
-256,-352,15960,256,567,-85
-256,-348,15688,511,562,-85
-256,-460,15728,511,593,-81
-256,-376,15752,511,572,-56
-256,-404,15968,256,557,-95
-256,-456,15948,256,581,-89
-256,-380,15708,511,564,-60
-256,-436,15700,511,566,-68
-256,-324,15696,511,573,-89
-256,-380,15756,511,602,-84
-256,-420,15760,511,595,-96
-256,-404,15740,511,555,-81
-256,-388,15756,511,560,-80
-256,-404,15964,256,586,-80
-256,-420,15728,511,604,-85
-256,-396,15956,256,600,-65
-256,-392,15720,511,580,-68
-256,-408,16008,256,574,-60
-256,-380,15732,511,572,-76
-256,-408,15756,511,564,-99
-256,-348,16000,256,571,-80
-256,-416,15984,256,581,-62
-256,-408,15704,511,568,-78
-256,-364,16008,256,576,-75
-256,-368,15772,511,572,-81
-256,-432,16016,256,584,-88
-256,-432,15716,511,564,-67
-256,-408,15936,256,558,-66
-256,-380,15700,511,577,-72
-256,-400,15732,511,577,-71
-256,-428,15720,511,588,-56
-256,-356,15672,511,576,-65
-256,-420,15720,511,578,-82
-256,-384,15956,256,573,-102
-256,-412,15736,511,560,-76
-256,-352,15884,256,549,-75
-256,-404,15724,511,584,-88
-256,-368,15668,511,561,-92
-256,-392,15760,511,593,-59
-256,-412,15700,511,594,-69
-256,-388,16000,256,568,-51
-256,-380,15908,256,602,-62
-256,-384,15980,256,588,-78
-256,-400,15700,511,583,-67
-256,-332,15724,511,592,-90
-256,-404,15744,511,568,-91
-256,-436,15716,511,585,-87
-256,-416,15736,511,570,-68
-256,-456,15736,511,581,-73
-256,-432,15684,511,574,-78
-256,-416,15992,256,575,-71
-256,-416,15684,511,583,-67
-256,-412,15980,256,574,-84
-256,-448,15980,256,585,-78
-256,-444,15748,511,565,-59
-256,-336,15980,256,582,-96
-256,-412,15712,511,602,-82
-256,-388,15748,511,606,-83
-256,-440,16028,256,587,-82
-256,-412,15660,511,575,-108
-256,-416,15720,511,561,-89
-256,-380,15764,511,576,-87
-256,-404,15736,511,573,-82
-256,-400,15952,256,578,-59
-256,-396,15728,511,584,-70
-256,-416,15984,256,577,-79
-256,-408,15708,511,570,-79
-256,-360,15960,256,569,-79
-256,-400,16004,256,584,-70
-256,-428,15976,256,558,-77
-256,-428,15960,256,568,-73
-256,-384,15696,511,571,-75
-256,-412,15712,511,573,-73
-256,-356,15688,511,556,-73
-256,-352,15952,256,575,-80
-256,-488,15700,511,597,-61
-256,-360,15652,511,597,-63
-256,-368,15988,256,576,-74
-256,-448,15720,511,575,-74
-256,-352,15684,511,576,-78
-256,-424,16032,256,571,-99
-256,-340,15740,511,579,-85
-256,-396,15684,511,568,-82
-256,-360,15716,511,585,-77
-256,-416,15736,511,560,-65
-256,-448,15740,511,582,-72
-256,-356,15764,511,594,-72
-256,-396,15996,256,586,-68
-256,-376,15716,511,578,-104
-256,-320,15692,511,546,-75
-256,-388,15952,256,556,-76
-256,-444,15732,256,573,-72
-256,-408,15728,511,589,-81
-256,-408,15768,511,563,-87
-256,-380,15716,511,567,-92
-256,-416,15696,511,583,-78
-256,-440,16012,256,568,-77
-256,-408,15732,511,576,-83
-256,-420,15712,511,565,-80
-256,-348,15708,511,573,-85
-256,-392,15712,511,592,-105
-256,-440,15680,511,579,-73
-256,-396,15968,256,581,-95
-256,-376,15688,511,585,-84
-256,-352,15952,256,589,-101
-256,-352,15688,511,603,-93
-256,-368,15676,511,588,-72
-256,-420,15964,256,574,-101
-256,-364,15680,511,596,-89
-256,-404,15720,511,554,-91
-256,-372,15724,511,575,-91
-256,-392,15724,511,574,-85
-256,-356,16000,256,578,-73
-256,-384,15752,511,566,-90
-256,-396,16028,256,561,-77
-256,-360,15772,511,580,-77
-256,-372,15996,256,562,-57
-256,-400,15704,511,582,-69
-256,-436,15736,511,592,-78
-256,-404,16008,256,581,-71
-256,-412,15728,511,592,-72
-256,-440,15640,511,577,-93
-256,-336,15808,511,570,-80
-256,-360,15768,511,580,-89
-256,-380,15752,511,585,-88
-256,-400,15952,256,572,-73
-256,-340,15700,511,569,-89
-256,-452,16008,256,597,-75
-256,-388,15704,511,573,-81
-256,-404,15704,511,582,-87
-256,-420,15984,256,594,-97
-256,-332,15740,511,603,-95
-256,-440,15732,511,609,-88
-256,-412,15740,511,581,-92
-256,-456,15684,511,599,-41
-256,-424,15988,256,571,-76
-256,-356,15720,511,572,-106
-256,-380,15940,256,582,-96
-256,-380,15940,256,584,-86
-256,-324,15716,511,572,-104
-256,-452,15668,511,572,-63
-256,-372,15724,511,579,-59
-256,-408,15780,511,583,-85
-256,-404,15684,511,562,-77
-256,-424,15736,511,579,-74
-256,-424,15984,256,572,-73
-256,-384,15680,511,559,-75
-256,-348,15676,511,572,-82
-256,-428,15696,511,591,-79
-256,-428,15988,256,565,-73
-256,-400,15924,256,579,-62
-256,-400,16012,256,560,-48
-256,-444,15928,256,586,-77
-256,-376,15716,511,569,-94
-256,-364,15968,256,570,-88
-256,-444,15668,511,590,-76
-256,-432,15752,511,574,-92
-256,-392,15716,511,553,-82
-256,-372,15688,511,571,-77
-256,-392,16048,256,587,-77
-256,-352,15736,511,554,-93
-256,-412,15684,511,581,-80
-256,-424,15720,511,571,-76
-256,-432,15960,256,542,-76
-256,-368,15700,511,580,-76
-256,-420,15680,511,587,-77
-256,-420,15948,256,588,-72
-256,-336,15956,256,584,-85
-256,-376,15780,511,558,-93
-256,-376,15680,511,565,-88
-256,-388,15956,256,579,-98
-256,-424,15752,511,580,-80
-256,-392,15988,256,574,-68
-256,-364,16016,256,572,-100
-256,-380,15972,256,577,-102
-256,-392,15708,511,564,-57
-256,-332,15788,511,563,-65
-256,-392,15748,511,586,-88
-256,-312,15688,511,571,-80
-256,-440,15660,511,590,-62
-256,-368,15756,511,590,-77
-256,-352,16028,256,570,-91
-256,-344,15972,256,588,-85
-256,-396,15976,256,563,-91
-256,-436,15708,511,570,-88
-256,-392,15800,511,579,-65
-256,-408,16016,256,570,-57
-256,-436,15764,511,576,-89
-256,-384,15704,511,587,-90
-256,-400,15936,256,602,-72
-256,-352,15696,511,576,-74
-256,-376,16020,256,583,-79
-256,-440,15928,256,579,-78
-256,-336,15760,511,574,-78
-256,-332,15952,256,581,-86
-256,-412,15720,511,580,-81
-256,-472,15712,511,590,-66
-256,-392,15740,511,581,-65
-256,-396,15756,511,582,-79
-256,-420,15692,511,593,-80
-256,-368,15704,511,547,-64
-256,-428,16044,256,568,-81
-256,-328,16016,256,575,-74
-256,-348,15708,511,603,-91
-256,-432,15684,511,570,-108
-256,-416,15948,256,585,-89
-256,-380,15980,256,579,-80
-256,-408,15780,511,558,-73
-256,-372,15704,511,583,-70
-256,-432,15780,511,597,-84
-256,-376,15972,256,573,-62
-256,-436,15928,256,566,-86
-256,-400,15952,256,582,-49
-256,-364,15684,511,590,-71
-256,-384,15660,511,582,-78
-256,-372,15796,511,598,-66
-256,-340,15724,511,569,-82
-256,-380,15952,256,568,-83
-256,-372,15748,511,590,-83
-256,-352,15692,511,593,-94
-256,-404,15960,256,605,-96
-256,-384,15720,511,569,-95
-256,-372,16004,256,590,-86
-256,-368,16000,256,584,-101
-256,-428,15700,256,563,-73
-256,-412,16044,256,560,-55
-256,-392,15712,511,565,-79
-256,-460,15664,511,584,-65
-256,-416,16000,256,574,-78
-256,-404,15728,511,590,-59
-256,-392,15952,256,583,-85
-256,-432,15728,256,572,-93
-256,-396,15976,256,561,-91
-256,-368,15704,511,559,-81
-256,-432,15668,256,568,-85
-256,-380,15992,256,587,-94
-256,-360,15768,511,587,-95
-256,-380,16008,256,582,-82
-256,-344,15988,256,580,-81
-256,-404,15688,511,568,-67
-256,-372,15748,511,569,-70
-256,-400,15804,511,566,-83
-256,-360,15708,511,577,-83
-256,-356,15732,511,574,-81
-256,-408,16032,256,579,-108
-256,-408,16020,256,566,-102
-256,-400,16040,256,585,-68
-256,-444,16012,256,588,-69
-256,-440,15748,511,571,-88
-256,-424,15988,256,574,-81
-256,-416,15672,256,568,-64
-256,-372,15748,511,575,-64
-256,-372,15660,511,596,-113
-256,-424,15748,511,592,-74
-256,-396,16024,511,594,-65
-256,-424,15708,511,576,-77
-256,-364,15700,511,578,-91
-256,-392,15980,511,606,-78
-256,-364,15700,511,582,-58
-256,-400,15648,511,574,-92
-256,-404,15964,256,576,-109
-256,-384,15728,511,585,-63
-256,-432,15972,256,583,-45
-256,-400,15680,511,567,-61
-256,-336,15988,256,586,-78
-256,-400,15936,256,561,-99
-256,-440,15732,511,583,-97
-256,-360,16008,256,592,-67
-256,-368,16008,256,561,-69
-256,-364,15724,511,559,-86
-256,-436,15936,256,579,-93
-256,-408,15756,511,587,-77
-256,-340,15760,511,568,-83
-256,-488,15728,511,569,-92
-256,-340,15744,511,591,-68
-256,-376,15688,511,588,-81
-256,-384,15704,511,594,-96
-256,-400,16012,256,606,-74
-256,-332,15992,256,588,-59
-256,-440,15740,511,577,-64
-256,-424,15720,511,587,-89
-256,-380,16024,256,595,-93
-256,-380,15632,511,591,-81
-256,-316,15692,511,598,-89
-256,-448,15696,511,587,-73
-256,-348,15660,511,574,-71
-256,-416,15720,511,578,-91
-256,-416,15972,256,585,-87
-256,-432,15972,511,577,-83
-256,-292,15692,511,574,-92
-256,-364,15744,511,583,-85
-256,-392,15976,256,572,-99
-256,-364,15708,511,574,-92
-256,-400,15740,511,570,-80
-256,-368,15660,511,580,-74
-256,-392,15940,256,554,-93
-256,-388,15964,256,574,-70
-256,-400,15716,511,587,-81
-256,-416,15668,511,574,-88
-256,-376,15720,511,592,-81
-256,-376,15772,511,586,-70
-256,-420,15732,511,580,-73
-256,-380,15708,511,581,-86
-256,-368,16016,256,592,-79
-256,-384,15784,256,570,-84
-256,-344,15944,256,566,-96
-256,-400,15952,256,578,-78
-256,-388,16012,256,565,-96
-256,-456,15984,256,584,-78
-256,-424,15752,511,595,-58
-256,-452,15764,511,562,-79
-256,-384,15968,256,576,-106
-256,-416,15688,511,569,-80
-256,-416,15944,256,582,-85
-256,-348,15700,511,581,-99
-256,-332,15948,256,575,-108
-256,-368,15756,511,567,-90
-256,-472,15816,511,563,-85
-256,-420,15712,511,577,-92
-256,-420,15692,511,576,-94
-256,-376,15728,511,582,-90
-256,-376,15716,511,580,-71
-256,-328,15692,511,587,-87
-256,-368,15756,511,585,-83
-256,-408,15664,256,572,-79
-256,-388,15968,256,583,-68
-256,-416,15792,511,584,-79
-256,-372,15660,511,577,-90
-256,-424,15724,511,560,-89
-256,-368,15984,256,576,-106
-256,-372,16000,256,596,-94
-256,-440,15732,511,573,-96
-256,-388,15752,511,585,-99
-256,-440,15688,511,575,-64
-256,-388,15712,511,573,-63
-256,-412,15928,256,581,-103
-256,-320,15708,511,594,-106
-256,-408,15712,511,586,-76
-256,-376,15948,256,567,-68
-256,-420,16056,256,587,-80
-256,-412,15952,256,568,-97
-256,-372,15736,511,593,-65
-256,-392,16048,256,605,-69
-256,-296,16032,256,578,-80
-256,-424,15704,511,567,-76
-256,-412,15704,256,596,-70
-256,-364,16048,256,576,-91
-256,-408,15708,511,559,-83
-256,-388,15736,511,574,-71
-256,-436,15936,256,590,-90
-256,-344,15988,256,582,-84
-256,-416,15720,511,571,-72
-256,-420,15748,511,590,-80
-256,-368,16000,256,575,-82
-256,-396,15956,256,560,-69
-256,-364,15972,256,577,-68
-256,-324,15652,511,574,-86
-256,-384,15684,511,577,-97
-256,-428,15720,511,589,-85
-256,-420,15736,511,574,-89
-256,-412,15992,256,574,-106
-256,-416,15756,511,569,-87
-256,-328,15704,511,575,-73
-256,-388,15724,511,556,-84
-256,-384,16012,256,566,-80
-256,-368,15752,511,589,-78
-256,-448,15720,511,583,-60
-256,-360,15984,256,569,-94
-256,-460,15720,511,570,-85
-256,-360,15740,511,571,-87
-256,-640,16108,256,569,-68
-256,-392,15708,511,565,-87
-256,-356,15708,511,565,-95
-256,-364,16020,256,575,-89
-256,-392,15700,511,582,-96
-256,-444,15756,511,576,-94
-256,-376,15716,511,578,-98
-256,-392,16016,256,587,-89
-256,-376,15664,256,587,-69
-256,-420,16020,256,556,-82
-256,-392,15988,256,548,-82
-256,-392,15732,511,577,-71
-256,-388,15892,256,580,-69
-256,-348,15696,511,591,-93
-256,-396,15716,511,581,-58
-256,-312,15748,511,582,-87
-256,-428,16068,256,591,-89
-256,-400,16008,256,567,-70
-256,-400,15736,256,574,-80
-256,-408,16008,256,587,-68
-256,-384,15772,511,564,-75
-256,-384,15964,256,563,-75
-256,-364,15988,256,574,-79
-256,-424,15768,511,581,-60
-256,-388,15752,511,574,-93
-256,-328,15744,511,567,-89
-256,-332,16004,256,562,-81
-256,-420,15732,511,580,-104
-256,-372,15680,511,584,-91
-256,-344,15708,511,573,-90
-256,-352,15720,511,564,-76
-256,-408,15940,256,569,-52
-256,-372,15980,256,564,-99
-256,-424,15696,511,571,-102
-256,-332,15752,511,595,-67
-256,-448,15960,256,570,-84
-256,-348,15784,511,587,-92
-256,-380,15936,256,581,-50
-256,-376,15728,511,574,-87
-256,-412,15720,256,556,-118
-256,-436,15972,256,563,-75
-256,-368,15656,511,562,-58
-256,-388,15716,511,570,-73
-256,-324,15924,256,577,-76
-256,-380,15696,511,575,-64
-256,-432,15764,511,575,-64
-256,-360,15748,511,569,-102
-256,-416,15692,511,584,-79
-256,-356,15968,256,575,-70
-256,-352,15680,511,566,-84
-256,-424,15692,511,569,-76
-256,-364,15744,511,594,-68
-256,-404,15976,511,591,-85
-256,-396,15960,256,590,-75
-256,-468,16004,256,568,-61
-256,-412,15956,256,558,-80
-256,-404,15980,256,581,-92
-256,-464,15736,511,559,-81
-256,-352,15720,511,575,-77
-256,-412,15656,511,577,-91
-256,-368,15944,256,597,-71
-256,-404,15940,256,593,-67
-256,-356,16020,256,600,-42
-256,-332,15716,511,626,-82
-256,-392,15992,256,578,-69
-256,-352,15964,256,571,-48
-256,-388,15724,511,573,-83
-256,-456,15940,511,592,-89
-256,-336,15720,511,592,-110
-256,-440,15712,511,590,-84
-256,-380,15712,511,571,-81
-256,-428,15704,511,572,-66
-256,-372,15996,256,574,-66
-256,-440,15768,511,568,-67
-256,-420,16012,256,562,-73
-256,-360,15756,511,592,-82
-256,-376,15988,256,565,-89
-256,-328,15748,511,586,-85
-256,-356,15688,511,552,-77
-256,-344,15708,511,568,-57
-256,-396,15996,256,587,-75
-256,-420,15748,511,569,-80
-256,-356,15704,511,577,-74
-256,-356,15928,256,599,-80
-256,-400,15744,511,593,-82
-256,-456,15960,256,580,-85
-256,-344,15996,256,594,-85
-256,-408,15964,256,582,-68
-256,-348,15696,511,563,-52
-256,-388,16004,256,575,-74
-256,-404,16016,256,604,-78
-256,-404,15740,511,579,-79
-256,-368,15740,511,570,-95
-256,-376,15736,256,586,-61
-256,-456,15684,511,584,-77
-256,-400,15948,256,564,-101
-256,-416,15724,511,582,-79
-256,-404,15672,511,560,-103
-256,-376,15752,511,568,-94
-256,-452,15676,511,578,-72
-256,-400,15684,511,582,-85
-256,-476,15732,511,579,-79
-256,-416,15988,256,584,-69
-256,-372,15740,511,567,-82
-256,-456,15688,511,567,-88
-256,-432,15980,256,591,-87
-256,-384,15952,256,580,-85
-256,-400,15736,511,561,-77
-256,-380,15728,511,571,-80
-256,-400,15992,256,581,-74
-256,-396,15940,256,595,-78
-256,-444,15708,511,571,-76
-256,-412,15964,256,572,-59
-256,-364,15768,511,579,-69
-256,-416,15716,511,584,-82
-256,-384,15728,511,563,-65
-256,-432,15720,511,580,-75
-256,-356,15996,256,577,-84
-256,-416,15708,511,595,-74
-256,-420,16004,256,570,-92
-256,-460,15956,256,570,-88
-256,-352,15708,511,558,-68
-256,-428,15928,256,571,-90
-256,-360,15688,511,583,-103
-256,-348,15932,256,582,-70
-256,-396,15756,511,600,-67
-256,-376,15716,511,558,-62
-256,-488,15724,511,557,-89
-256,-436,15692,511,568,-78
-256,-460,15752,511,563,-65
-256,-380,15708,256,567,-86
-256,-340,15696,511,585,-57
-256,-428,15720,511,577,-75
-256,-416,15712,511,573,-72
-256,-340,15692,511,583,-82
-256,-364,15740,511,580,-81
-256,-344,16036,256,568,-58
-256,-372,15660,511,582,-75
-256,-376,15932,256,571,-79
-256,-376,15744,511,595,-84
-256,-324,15712,511,582,-68
-256,-368,15968,256,567,-73
-256,-408,15748,256,584,-93
-256,-372,15960,256,580,-66
-256,-432,15676,511,579,-77
-256,-396,15796,511,588,-96
-256,-352,15656,511,584,-80
-256,-352,15932,256,579,-87
-256,-372,15736,511,564,-95
-256,-460,15944,256,581,-73
-256,-420,15732,511,570,-73
-256,-440,15700,511,571,-65
-256,-448,15716,511,572,-87
-256,-396,15932,256,589,-92
-256,-396,15760,511,566,-69
-256,-372,15760,511,566,-60
-256,-340,15692,511,563,-64
-256,-472,15724,511,593,-66
-256,-360,15708,511,580,-73
-256,-428,15924,256,585,-76
-256,-352,15696,511,578,-82
-256,-348,15988,256,578,-88
-256,-408,16008,256,578,-74
-256,-348,15732,511,577,-83
-256,-412,15736,511,597,-84
-256,-376,15948,256,583,-67
-256,-356,15792,511,579,-91
-256,-348,15964,256,569,-110
-256,-444,15944,256,570,-102
-256,-368,15736,511,584,-104
-256,-384,15968,256,585,-78
-256,-420,15796,511,577,-67
-256,-424,15748,511,571,-63
-256,-364,15960,256,557,-82
-256,-408,15952,256,549,-90
-256,-300,15740,511,575,-55
-256,-400,15932,256,558,-66
-256,-408,15712,511,570,-100
-256,-364,15728,511,574,-107
-256,-368,16024,256,569,-76
-256,-348,15732,511,588,-107
-256,-420,15964,256,588,-93
-256,-392,15656,511,584,-72
-256,-356,15980,256,555,-91
-256,-408,15728,511,566,-79
-256,-388,15712,511,587,-84
-256,-412,16000,256,583,-71
-256,-396,15704,511,572,-70
-256,-404,15724,511,587,-75
-256,-444,16036,256,555,-88
-256,-380,15788,511,562,-79
-256,-412,16000,256,595,-55
-256,-372,15752,511,575,-95
-256,-388,15748,511,566,-72
-256,-372,16004,256,575,-72
-256,-348,15724,511,585,-68
-256,-400,15784,511,585,-88
-256,-432,15960,256,614,-61
-256,-364,16008,256,574,-78
-256,-432,15988,256,568,-102
-256,-376,15668,511,583,-82
-256,-436,15964,256,581,-86
-256,-360,15716,511,566,-72
-256,-420,15716,511,577,-74
-256,-356,15700,511,577,-82
-256,-420,15672,511,585,-92
-256,-412,15732,511,590,-95
-256,-380,15728,511,571,-77
-256,-452,15964,256,591,-81
-256,-404,15744,511,601,-95
-256,-416,15968,256,578,-90
-256,-380,15964,256,577,-102
-256,-380,15728,256,576,-65
-256,-424,15940,256,581,-51
-256,-380,15976,256,574,-86
-256,-376,15736,511,566,-75
-256,-396,15688,511,564,-94
-256,-384,15988,256,583,-93
-256,-392,15960,256,580,-78
-256,-372,15700,511,590,-89
-256,-384,15976,256,587,-80
-256,-436,15988,256,570,-57
-256,-388,16008,256,575,-40
-256,-388,15728,511,585,-73
-256,-416,15896,256,580,-82
-256,-360,15740,511,577,-82
-256,-440,15768,511,595,-63
-256,-420,15708,511,586,-90
-256,-412,15944,256,586,-60
-256,-420,15684,511,587,-88
-256,-404,15648,511,593,-98
-256,-476,15984,256,582,-86
-256,-452,15704,511,575,-76
-256,-320,15748,511,571,-77
-256,-368,15748,511,583,-84
-256,-372,16004,256,583,-104
-256,-364,15712,511,596,-67
-256,-364,15680,511,597,-76
-256,-400,15736,511,573,-100
-256,-396,15716,511,583,-91
-256,-420,15952,256,589,-90
-256,-388,15724,511,567,-94
-256,-428,16000,256,575,-73
-256,-456,15704,511,583,-83
-256,-372,15724,511,585,-73
-256,-488,15744,511,581,-97
-256,-416,15736,511,569,-68
-256,-404,15996,256,579,-74
-256,-392,15700,511,554,-67
-256,-440,16000,256,582,-74
-256,-436,16052,256,588,-84
-256,-392,15740,511,592,-55
-256,-388,15992,256,596,-79
-256,-376,15740,511,600,-79
-256,-412,15740,511,592,-87
-256,-356,15692,511,567,-70
-256,-364,15740,511,577,-81
-256,-400,15720,511,566,-89
-256,-380,15788,511,585,-102
-256,-368,15756,511,581,-88
-256,-392,15764,511,569,-91
-256,-364,15704,511,568,-87
-256,-348,15984,256,573,-100
-256,-424,15752,511,575,-72
-256,-428,15712,511,594,-45
-256,-388,16040,256,592,-62
-256,-416,15756,511,574,-104
-256,-412,16088,256,599,-78
-256,-380,15704,511,585,-74
-256,-376,15772,511,556,-94
-256,-436,15704,511,558,-71
-256,-460,15724,511,571,-101
-256,-404,16008,256,583,-84
-256,-376,15740,511,604,-98
-256,-404,15676,511,603,-92
-256,-416,15712,511,585,-59
-256,-396,15736,511,567,-96
-256,-432,15700,511,576,-82
-256,-404,15980,256,582,-70
-256,-384,15740,511,575,-77
-256,-424,15964,256,583,-75
-256,-392,15984,256,585,-91
-256,-392,15696,511,580,-87
-256,-420,16008,256,572,-60
-256,-404,15740,511,576,-78
-256,-372,15748,511,605,-82
-256,-452,15668,511,586,-74
-256,-412,15720,511,562,-67
-512,-268,15728,511,556,-93
-256,-396,15980,256,570,-70
-256,-464,15784,511,583,-67
-256,-412,15992,256,599,-60
-256,-380,15732,511,587,-76
-256,-436,15684,511,576,-106
-256,-352,15952,256,579,-86
-256,-356,15744,511,601,-73
-256,-456,15680,511,596,-56
-256,-384,15668,511,599,-99
-256,-412,15756,511,577,-85
-256,-404,15720,511,574,-68
-256,-360,15668,511,572,-95
-256,-332,15688,511,588,-79
-256,-384,15732,511,581,-72
-256,-392,15924,256,590,-77
-256,-400,15740,511,582,-74
-256,-412,15696,511,575,-79
-256,-448,15776,511,587,-75
-256,-404,15792,511,568,-103
-256,-408,15968,256,567,-112
-256,-432,15664,511,582,-86
-256,-412,15696,511,601,-97
-256,-340,15796,511,579,-99
-256,-460,16016,256,567,-74
-256,-364,15708,511,579,-58
-256,-408,15712,511,578,-96
-256,-408,15980,256,575,-86
-256,-428,15684,511,578,-86
-256,-396,15760,511,597,-76
-256,-364,15696,511,591,-61
-256,-408,15984,256,593,-70
-256,-412,15976,256,578,-96
-256,-424,15696,511,573,-68
-256,-324,15716,511,566,-90
-256,-388,16004,256,594,-108
-256,-432,15700,511,545,-76
-256,-388,15956,256,547,-75
-256,-372,15972,256,587,-77
-256,-424,15956,256,609,-67
-256,-368,15724,256,601,-70
-256,-380,15956,256,587,-76
-256,-352,15752,511,576,-99
-256,-420,15920,256,560,-88
-256,-372,15688,511,590,-60
-256,-432,15696,511,580,-74
-256,-444,15968,256,588,-85
-256,-316,16060,256,579,-101
-256,-400,16008,256,561,-83
-256,-400,15768,256,564,-85
-256,-392,15676,511,580,-71
-256,-428,15764,511,556,-88
-256,-412,15720,511,564,-72
-256,-340,15976,256,585,-77
-256,-480,15992,256,576,-70
-256,-396,15720,511,590,-101
-256,-412,15748,511,593,-83
-256,-376,15716,511,571,-77
-256,-376,15992,256,568,-98
-256,-352,15744,511,568,-87
-256,-376,15756,256,565,-102
-256,-460,15756,511,574,-75
-256,-368,15944,256,578,-78
-256,-424,15760,511,560,-107
-256,-340,15988,256,559,-70
-256,-436,15736,511,573,-73
-256,-376,15764,511,574,-74
-256,-432,15956,256,577,-88
-256,-356,15704,511,597,-75
-256,-404,15704,511,590,-86
-256,-400,15960,256,579,-51
-256,-448,15684,511,578,-86
-256,-416,15744,511,565,-60
-256,-308,15716,511,583,-71
-256,-384,16064,256,573,-94
-256,-400,15728,511,568,-82
-256,-440,15720,511,584,-77
-256,-420,15972,256,589,-68
-256,-360,15696,511,587,-64
-256,-456,15696,511,584,-41
-256,-436,15656,511,588,-92
-256,-376,15980,256,610,-82
-256,-428,15696,511,572,-87
-256,-424,15704,511,583,-82
-256,-372,15964,256,588,-79
-256,-384,15696,511,579,-71
-256,-384,15688,511,582,-84
-256,-356,15676,511,584,-91
-256,-444,15696,511,569,-78
-256,-384,15764,511,561,-70
-256,-368,15712,511,574,-70
-256,-424,16028,256,567,-56
-256,-392,16016,256,577,-77
-256,-368,15740,511,589,-94
-256,-424,15724,511,583,-84
-256,-424,15984,256,577,-64
-256,-372,15780,511,580,-76
-256,-432,15716,511,586,-47
-256,-356,15740,511,579,-78
-256,-356,15932,256,561,-87
-256,-384,15772,511,596,-81
-256,-416,15720,511,559,-79
-256,-360,15696,511,573,-86
-256,-372,15728,511,589,-69
-256,-372,15728,511,580,-84
-256,-360,15660,511,547,-74
-256,-404,15764,511,582,-61
-256,-380,15736,511,574,-77
-256,-420,15712,511,570,-93
-256,-432,15748,511,584,-106
-256,-360,15708,511,600,-94
-256,-400,15720,511,574,-104
-256,-344,15720,511,551,-96
-256,-400,15744,511,582,-115
-256,-408,15648,511,577,-93
-256,-384,15744,511,593,-71
-256,-392,16000,256,593,-81
-256,-492,15720,511,570,-91
-256,-452,16052,256,571,-73
-256,-368,15644,511,566,-66
-256,-416,15960,256,563,-80
-256,-400,15704,511,577,-71
-256,-388,15712,511,570,-80
-256,-360,15980,256,579,-100
-256,-408,15680,511,592,-81
-256,-448,15764,511,593,-73
-256,-372,15760,511,604,-69
-256,-416,15736,511,574,-96
-256,-384,15676,511,594,-76
-256,-420,15700,511,589,-59
-256,-348,15736,256,603,-64
-256,-376,15684,511,623,-61
-256,-436,15996,256,591,-67
-256,-380,15740,511,588,-65
-256,-412,15796,511,580,-58
-256,-476,15980,256,570,-70
-256,-348,15704,511,575,-94
-256,-412,15700,511,565,-93
-256,-440,15692,511,595,-98
-256,-392,15948,256,590,-68
-256,-440,15704,511,578,-73
-256,-344,15708,511,597,-72
-256,-392,15744,511,570,-82
-256,-424,15728,511,571,-78
-256,-340,15932,256,584,-69
-256,-364,15708,511,571,-65
-256,-408,15740,511,586,-54
-256,-428,15680,511,567,-80
-256,-384,15944,256,581,-66
-256,-408,15652,511,572,-59
-256,-400,15972,256,568,-91
-256,-484,15676,511,541,-77
-256,-368,15760,511,555,-93
-256,-464,15976,511,583,-80
-256,-408,15712,511,570,-92
-256,-408,15736,511,567,-95
-256,-384,15740,511,587,-81
-256,-340,15708,511,580,-82
-256,-372,15976,256,582,-79
-256,-380,15952,256,582,-87
-256,-396,15696,511,558,-77
-256,-452,15684,511,553,-66
-256,-408,16020,256,576,-108
-256,-420,15736,511,583,-106
-256,-420,15720,511,596,-85
-256,-400,15744,511,591,-77
-256,-392,15712,511,580,-75
-256,-424,15736,511,547,-85
-256,-388,15784,511,565,-92
-256,-372,15708,511,578,-62
-256,-380,15752,511,578,-81
-256,-408,15964,256,583,-76
-256,-428,15700,511,577,-63
-256,-396,15912,256,583,-72
-256,-428,16000,256,606,-55
-256,-412,15960,256,582,-62
-256,-436,15696,511,557,-94
-256,-428,15988,256,593,-92
-256,-352,15664,511,574,-73
-256,-404,15704,511,578,-75
-256,-372,15952,256,589,-80
-256,-376,15980,256,592,-92
-256,-388,15712,511,573,-69
-256,-360,15756,511,580,-94
-256,-364,16024,256,565,-87
-256,-356,15684,511,592,-106
-256,-408,15696,511,598,-78
-256,-336,16004,256,583,-67
-256,-460,16028,256,574,-67
-256,-416,15732,511,557,-101
-256,-396,15976,256,579,-92
-256,-432,16024,256,570,-92
-256,-356,15968,256,573,-87
-256,-416,15736,511,611,-83
-256,-380,15716,511,574,-88
-256,-420,15712,511,563,-95
-256,-376,15756,511,555,-92
-256,-416,15696,511,575,-77
-256,-364,15956,511,577,-64
-256,-404,15924,256,557,-81
-256,-392,15984,256,580,-78
-256,-396,15984,256,621,-92
-256,-320,15732,511,616,-70
-256,-412,15988,256,567,-65
-256,-412,15664,511,562,-115
-256,-452,15984,256,555,-84
-256,-336,15976,256,573,-70
-256,-420,15700,511,578,-55
-256,-448,15960,256,572,-66
-256,-360,15960,256,581,-78
-256,-416,15968,256,608,-78
-256,-376,15680,511,599,-76
-256,-376,15708,511,571,-81
-256,-352,15732,511,580,-62
-256,-452,15696,511,570,-74
-256,-420,15740,511,575,-87
-256,-436,16008,256,589,-73
-256,-388,15744,511,582,-75
-256,-408,15976,256,579,-99
-256,-376,15756,511,580,-95
-256,-360,16020,256,576,-50
-256,-340,16004,256,582,-94
-256,-440,15696,511,582,-98
-256,-420,15676,511,582,-82
-256,-396,15952,256,593,-71
-256,-384,15752,511,583,-85
-256,-380,15708,511,571,-80
-256,-416,15744,511,557,-80
-256,-368,15984,256,567,-65
-256,-436,15712,511,589,-64
-256,-396,15716,511,596,-96
-256,-388,15968,256,576,-80
-256,-384,15948,256,573,-99
-256,-400,15720,511,580,-107
-256,-372,15696,511,579,-91
-256,-380,15696,511,572,-105
-256,-324,15764,511,599,-94
-256,-416,15948,256,576,-81
-256,-408,15976,256,572,-71
-256,-392,15932,256,593,-73
-256,-412,15716,511,590,-87
-256,-360,15684,511,596,-92
-256,-412,15736,511,584,-81
-256,-432,16004,256,589,-70
-256,-396,15744,511,573,-79
-256,-420,15664,511,574,-94
-256,-396,15724,511,584,-98
-256,-324,15932,256,562,-74
-256,-404,16024,256,580,-91
-256,-432,15932,256,561,-92
-256,-372,15728,511,573,-79
-256,-380,15940,256,558,-76
-256,-384,15668,511,566,-88
-256,-484,15916,256,577,-98
-256,-420,15728,511,585,-64
-256,-424,15984,256,592,-81
-256,-416,15716,511,596,-100
-256,-376,15964,256,573,-100
-256,-348,15776,511,580,-78
-256,-460,15704,511,597,-88
-256,-348,15720,511,555,-79
-256,-448,15992,256,560,-82
-256,-444,16016,511,600,-66
-256,-388,15732,256,558,-88
-256,-440,15716,511,587,-68
-256,-396,16024,256,570,-86
-256,-364,15720,256,581,-84
-256,-420,15952,256,603,-91
-256,-404,15684,511,593,-95
-256,-428,15788,511,592,-58
-256,-424,15684,511,582,-49
-256,-324,15760,256,604,-88
-256,-484,15960,256,604,-93
-256,-348,16028,256,574,-77
-256,-444,15700,511,572,-75
-256,-392,15992,256,579,-93
-256,-324,15932,256,565,-80
-256,-424,15960,256,565,-72
-256,-460,15996,256,585,-87
-256,-392,15624,256,568,-85
-256,-364,16024,511,591,-69
-256,-440,15732,511,555,-94
-256,-356,15952,256,573,-80
-256,-372,15760,511,615,-62
-256,-380,15988,511,586,-70
-256,-336,15732,511,574,-89
-256,-376,15684,511,585,-68
-256,-416,15984,256,581,-71
-256,-352,15756,511,587,-103
-256,-416,16032,256,597,-92
-256,-432,15708,511,567,-71
-256,-468,15680,256,555,-80
-256,-364,16040,256,573,-74
-256,-372,15952,256,590,-86
-256,-380,15936,256,585,-71
-256,-404,15736,511,559,-102
-256,-440,15968,256,584,-90
-256,-412,16000,256,550,-82
-256,-412,15788,256,584,-66
-256,-424,15720,511,587,-70
-256,-364,15976,256,574,-85
-256,-396,16000,511,599,-70
-256,-408,15740,511,569,-73
-256,-336,15744,511,581,-101
-256,-368,16008,511,568,-82
-256,-336,15752,256,578,-83
-256,-400,15728,511,585,-93
-256,-396,15984,511,582,-86
-256,-436,15692,511,567,-78
-256,-444,16016,511,582,-88
-256,-436,15732,511,575,-89
-256,-456,15972,511,582,-77
-256,-384,15720,511,572,-101
-256,-372,15976,256,560,-81
-256,-348,15708,511,579,-89
-256,-404,15968,256,578,-69
-256,-396,15960,256,580,-78
-256,-360,15704,511,575,-82
-256,-400,15760,511,572,-83
-256,-420,15716,511,574,-70
-256,-368,15680,511,557,-84
-256,-396,15980,511,604,-74
-256,-368,15752,511,601,-93
-256,-396,15960,256,580,-72
-256,-352,16004,256,570,-75
-256,-404,16020,256,561,-75
-256,-392,15712,256,567,-81
-256,-400,16016,256,576,-81
-256,-388,16024,511,597,-89
-256,-404,15768,256,579,-79
-256,-368,15676,256,585,-68
-256,-428,16032,256,580,-80
-256,-444,16012,256,576,-88
-256,-408,15704,511,584,-87
-256,-320,15664,511,573,-83
-256,-336,16048,256,573,-77
-256,-376,15980,256,583,-93
-256,-320,15720,256,568,-78
-256,-404,15744,511,575,-91
-256,-384,15948,256,572,-83
-256,-344,15708,511,591,-93
-256,-388,15948,256,589,-94
-256,-400,15740,511,587,-103
-256,-348,15668,511,562,-73
-256,-400,15988,511,565,-54
-256,-440,15660,511,575,-100
-256,-372,15776,511,586,-88
-256,-420,15944,511,586,-71
-256,-372,15696,511,562,-84
-256,-344,15996,256,583,-67
-256,-416,15756,511,600,-86
-256,-392,15980,256,570,-76
-256,-420,15752,511,582,-94
-256,-344,15700,511,574,-90
-256,-404,15720,511,577,-94
-256,-344,15968,256,576,-97
-256,-416,15692,511,573,-70
-256,-384,15744,511,585,-69
-256,-360,15676,511,568,-78
-256,-392,15964,256,567,-82
-256,-380,16016,256,586,-84
-256,-376,15716,511,594,-87
-256,-432,15968,256,573,-74
-256,-388,15720,511,587,-66
-256,-448,15732,256,576,-92
-256,-384,15988,256,573,-77
-256,-424,15700,511,587,-86
-256,-408,15748,511,589,-93
-256,-392,16008,256,571,-93
-256,-356,15720,511,609,-88
-256,-396,16036,256,593,-49
-256,-364,15696,511,586,-76
-256,-428,15936,256,570,-82
-256,-448,15764,511,555,-86
-256,-404,15756,511,582,-100
-256,-400,15692,511,560,-67
-256,-400,15660,511,567,-57
-256,-380,15968,256,580,-56
-256,-460,15684,511,573,-82
-256,-432,15976,256,589,-67
-256,-360,16052,256,568,-69
-256,-380,15732,256,564,-47
-256,-372,15716,511,593,-59
-256,-436,15928,256,579,-101
-256,-432,15752,511,561,-97
-256,-392,15648,511,572,-81
-256,-380,15752,511,556,-85
-256,-364,15756,511,565,-105
-256,-420,16020,256,557,-85
-256,-448,15780,256,567,-85
-256,-420,16024,256,575,-76
-256,-392,15944,256,578,-73
-256,-376,15736,511,577,-103
-256,-428,15724,511,557,-66
-256,-432,15704,511,554,-66
-256,-404,15960,256,580,-76
-256,-432,15744,511,577,-72
-256,-340,16008,256,557,-67
-256,-408,15996,256,568,-86
-256,-364,15728,511,594,-94
-256,-452,15728,511,559,-95
-256,-380,15732,511,580,-72
-256,-404,15956,256,597,-77
-256,-376,15788,511,592,-78
-256,-376,15748,511,565,-89
-256,-376,15984,256,571,-109
-256,-440,15740,511,583,-78
-256,-364,15968,511,587,-94
-256,-412,15720,511,590,-80
-256,-376,15712,511,586,-73
-256,-464,15932,511,570,-86
-256,-400,15744,511,598,-92
-256,-428,15712,511,588,-94
-256,-372,15712,511,589,-95
-256,-392,16028,256,591,-73
-256,-328,16032,256,598,-78
-256,-360,15684,511,586,-70
-256,-400,15892,256,595,-80
-256,-376,15988,256,591,-83
-256,-432,15960,256,604,-80
-256,-356,15668,511,584,-84
-256,-396,15964,256,565,-89
-256,-384,15744,511,571,-78
-256,-356,15728,511,562,-86
-256,-440,15992,256,582,-90
-256,-408,15668,511,573,-65
-256,-440,15732,511,585,-72
-256,-452,15684,511,587,-98
-256,-412,15708,511,585,-94
-256,-396,15692,511,570,-88
-256,-384,16012,256,593,-89
-256,-400,15940,256,571,-78
-256,-352,15700,511,555,-73
-256,-432,15972,256,587,-65
-256,-380,15700,511,559,-78
-256,-444,15960,256,564,-97
-256,-376,15688,511,582,-81
-256,-400,15700,511,579,-66
-256,-436,16028,256,577,-91
-256,-412,15700,511,578,-92
-256,-416,15708,511,569,-79
-256,-412,15660,511,562,-71
-256,-452,15728,511,565,-73
-256,-400,15744,511,560,-80
-256,-396,15744,511,553,-74
-256,-340,15728,511,578,-78
-256,-400,15676,511,582,-84
-256,-392,16020,256,585,-65
-256,-392,15696,511,585,-84
-256,-396,15720,511,581,-77
-256,-412,15772,511,603,-68
-256,-428,15756,511,596,-86
-256,-408,15980,256,569,-59
-256,-388,15684,256,580,-63
-256,-344,15700,511,575,-85
-256,-424,15728,511,564,-98
-256,-424,15972,256,595,-89
-256,-400,15936,256,575,-110
-256,-400,15968,256,556,-100
-256,-348,15720,511,571,-64
-256,-400,15976,256,573,-85
-256,-408,16008,256,577,-81
-256,-368,15776,511,582,-99
-256,-436,15680,511,592,-79
-256,-344,15964,256,599,-61
-256,-392,15996,256,577,-80
-256,-372,15700,511,572,-100
-256,-332,15748,511,582,-93
-256,-284,15684,511,572,-91
-256,-388,16012,256,581,-91
-256,-372,15696,511,578,-88
-256,-400,16040,256,582,-93
-256,-420,16028,256,580,-94
-256,-368,15676,256,570,-106
-256,-388,15784,511,549,-89
-256,-392,15716,511,569,-91
-256,-432,15724,511,560,-71
-256,-388,15664,511,581,-98
-256,-372,15672,511,568,-97
-256,-424,15960,256,571,-56
-256,-340,15964,256,569,-64
-256,-396,15720,511,557,-87
-256,-396,15724,511,575,-94
-256,-404,15956,256,578,-100
-256,-400,15744,511,573,-86
-256,-388,15724,511,554,-90
-256,-356,15684,511,561,-83
-256,-404,15716,511,587,-55
-256,-424,16000,256,576,-73
-256,-400,15684,511,563,-64
-256,-392,16012,256,563,-87
-256,-404,15968,256,552,-92
-256,-376,16012,256,578,-68
-256,-436,15972,256,572,-69
-256,-372,15760,511,579,-79
-256,-440,15780,511,555,-85
-256,-408,15672,256,560,-85
-256,-404,15676,511,575,-88
-256,-424,16012,256,576,-93
-256,-432,15752,511,573,-120
-256,-444,16004,256,580,-81
-256,-388,15960,256,587,-58
-256,-440,15748,511,579,-76
-256,-440,15700,511,579,-100
-256,-412,15660,511,577,-65
-256,-432,15964,256,572,-78
-256,-344,15708,511,587,-71
-256,-388,15720,511,598,-96
-256,-372,15632,256,552,-80
-256,-432,15972,256,590,-86
-256,-360,15960,256,599,-79
-256,-492,15948,256,580,-71
-256,-384,15672,511,578,-80
-256,-388,15956,256,594,-85
-256,-364,16020,256,588,-88
-256,-456,15692,511,586,-88
-256,-468,15724,256,589,-86
-256,-480,15976,256,580,-65
-256,-380,16000,256,572,-86
-256,-400,15724,256,588,-71
-256,-388,16016,256,590,-96
-256,-364,15964,256,575,-98
-256,-336,15712,511,581,-88
-256,-432,15744,511,575,-75
-256,-428,15704,511,591,-115
-256,-376,15712,511,575,-94
-256,-476,15744,256,560,-58
-256,-364,15740,511,576,-77
-256,-428,15696,511,568,-91
-256,-396,15632,511,558,-81
-256,-376,15684,256,573,-81
-256,-360,15724,511,574,-100
-256,-356,15668,511,568,-92
-256,-428,15720,511,584,-90
-256,-380,15668,511,574,-96
-256,-404,15944,256,593,-76
-256,-360,16012,256,605,-75
-256,-364,15764,511,564,-74
-256,-368,15712,511,580,-89
-256,-412,15912,256,574,-72
-256,-420,15912,256,577,-84
-256,-436,15768,511,568,-82
-256,-388,15660,511,564,-82
-256,-400,15968,256,568,-61
-256,-332,15720,511,569,-114
-256,-380,15956,256,565,-100
-256,-452,15704,511,562,-71
-256,-448,15928,256,580,-78
-256,-388,15988,256,570,-87
-256,-376,15640,511,553,-87
-256,-380,15688,511,567,-93
-256,-368,15908,256,585,-90
-256,-380,15712,511,577,-72
-256,-392,15700,511,568,-91
-256,-392,15692,511,566,-86
-256,-408,15960,256,574,-64
-256,-408,16000,256,580,-108
-256,-396,15692,511,578,-87
-256,-392,15996,256,572,-73
-256,-440,15716,511,567,-98
-256,-356,16004,256,579,-73
-256,-384,15740,511,598,-56
-256,-404,15772,511,587,-62
-256,-372,15740,511,571,-73
-256,-404,15960,256,578,-60
-256,-376,15984,256,573,-85
-256,-380,15688,511,573,-86
-256,-428,15752,511,583,-65
-256,-400,15688,511,579,-74
-256,-340,15972,256,568,-78
-256,-368,15736,511,575,-93
-256,-416,15716,511,575,-65
-256,-368,15688,511,581,-81
-256,-444,15696,511,579,-72
-256,-484,15736,511,589,-77
-256,-440,15740,511,595,-88
-256,-404,15736,511,564,-92
-256,-348,16000,256,574,-69
-256,-412,15744,511,588,-91
-256,-404,15664,511,570,-81
-256,-464,15996,256,564,-76
-256,-384,15972,256,569,-73
-256,-424,16004,256,564,-80
-256,-344,15712,511,564,-86
-256,-392,15720,511,583,-90
-256,-356,15940,511,578,-78
-256,-364,15736,511,570,-101
-256,-412,15728,511,574,-80
-256,-364,15980,256,568,-73
-256,-348,15700,511,565,-92
-256,-360,15964,256,588,-91
-256,-436,15692,511,579,-84
-256,-388,15680,511,583,-67
-256,-388,15692,511,585,-82
-256,-400,15976,256,581,-103
-256,-376,15884,256,588,-77
-256,-344,15668,511,595,-73
-256,-408,15684,511,580,-91
-256,-392,16012,256,601,-84
-256,-436,15744,511,561,-72
-256,-400,16008,256,598,-90
-256,-352,15972,256,581,-81
-256,-384,15732,511,574,-71
-256,-344,15760,511,569,-98
-256,-384,15724,511,593,-85
-256,-416,15676,511,585,-76
-256,-428,15968,256,580,-68
-256,-440,15720,511,584,-82
-256,-332,15944,511,574,-63
-256,-400,16008,256,575,-87
-256,-408,15988,256,576,-92
-256,-456,15976,256,577,-92
-256,-432,15952,256,583,-94
-256,-400,15736,511,586,-104
-256,-444,15976,256,585,-96
-256,-324,15716,511,568,-92
-256,-452,15944,256,563,-67
-256,-376,15772,511,566,-81
-256,-396,16024,256,594,-65
-256,-448,15736,511,592,-84
-256,-400,15744,511,565,-87
-256,-404,15696,511,599,-86
-256,-388,15952,256,607,-79
-256,-340,15684,511,581,-78
-256,-404,15976,256,594,-75
-256,-428,15728,256,587,-82
-256,-400,15724,511,583,-94
-256,-408,16012,256,571,-77
-256,-412,15780,511,585,-86
-256,-424,15664,511,594,-65
-256,-400,15704,511,568,-84
-256,-316,15992,256,565,-92
-256,-392,15956,256,571,-71
-256,-372,15752,511,592,-93
-256,-388,16000,511,587,-97
-256,-376,15724,256,581,-87
-256,-316,15960,256,589,-92
-256,-380,15668,511,564,-103
-256,-448,15720,511,562,-77
-256,-344,15740,511,584,-91
-256,-408,15672,511,580,-91
-256,-400,15984,256,573,-90
-256,-444,15724,511,575,-76
-256,-400,15696,511,572,-75
-256,-348,15740,511,581,-65
-256,-396,15700,511,564,-99
-256,-392,15912,256,551,-80
-256,-456,15696,511,578,-94
-256,-380,15944,256,594,-77
-256,-416,16040,256,598,-74
-256,-404,15700,511,568,-81
-256,-324,15928,256,582,-76
-256,-368,16028,256,566,-82
-256,-472,15768,511,559,-61
-256,-444,15720,511,570,-92
-256,-392,15720,511,549,-108
-256,-380,15988,256,591,-78
-256,-380,15648,511,571,-81
-256,-464,15924,256,579,-75
-256,-384,15732,511,596,-76
-256,-432,15708,511,583,-76
-256,-436,15740,511,604,-100
-256,-400,15756,511,579,-112
-256,-352,15664,511,562,-97
-256,-412,15708,511,581,-74
-256,-384,15704,511,570,-70
-256,-404,15960,256,569,-55
-256,-412,15736,511,590,-71
-256,-328,15692,511,573,-88
-256,-396,15748,511,578,-96
-256,-360,15952,256,563,-90
-256,-384,15704,511,558,-86
-256,-384,16000,256,571,-102
-256,-444,15912,256,561,-104
-256,-404,15704,511,586,-80
-256,-424,15916,256,570,-86
-256,-296,16024,256,571,-98
-256,-448,15984,256,566,-76
-256,-344,15988,256,578,-64
-256,-364,15948,256,555,-59
-256,-388,15704,511,565,-91
-256,-380,15752,511,592,-98
-256,-332,15676,511,579,-75
-256,-336,15716,511,575,-95
-256,-412,15712,511,584,-77
-256,-372,15696,511,585,-70
-256,-380,15672,511,556,-89
-256,-672,15868,511,558,-65
-256,-396,15952,256,575,-99
-256,-364,15680,511,569,-80
-256,-420,15716,511,585,-89
-256,-376,15732,511,593,-93
-256,-400,15724,511,565,-96
-256,-384,15980,256,578,-99
-256,-424,15732,511,572,-82
-256,-384,15968,256,594,-93
-256,-356,15664,511,592,-111
-256,-392,15752,511,587,-65
-256,-436,16000,256,575,-71
-256,-348,15700,511,578,-89
-256,-436,15700,511,578,-99
-256,-412,15984,256,576,-58
-256,-404,15960,256,582,-45
-256,-420,15716,511,578,-71
-256,-352,15976,256,582,-72
-256,-328,16052,256,580,-102
-256,-396,15780,511,579,-93
-256,-420,15748,256,577,-101
-256,-388,15756,511,596,-63
-256,-388,15700,511,580,-91
-256,-364,15956,256,573,-90
-256,-400,15696,511,551,-105
-256,-396,15672,511,567,-71
-256,-376,15936,256,559,-78
-256,-448,15968,256,563,-84
-256,-456,15776,511,563,-111
-256,-364,15736,511,567,-98
-256,-364,15744,511,575,-82
-256,-416,15644,511,585,-82
-256,-392,15756,511,580,-73
-256,-452,15712,511,582,-86
-256,-420,15672,511,579,-65
-256,-380,15644,256,579,-78
-256,-372,15984,256,566,-94
-256,-464,15624,511,580,-93
-256,-436,15972,256,600,-103
-256,-352,15944,256,591,-98
-256,-380,15936,256,558,-83
-256,-404,15680,511,562,-70
-256,-324,15728,511,564,-88
-256,-376,15744,511,594,-85
-256,-464,15984,256,590,-88
-256,-380,15716,511,569,-73
-256,-388,15936,256,562,-67
-256,-432,15952,256,551,-94
-256,-372,15768,511,585,-70
-256,-400,15932,256,573,-91
-256,-376,15728,511,546,-81
-256,-456,15964,256,586,-72
-256,-408,15964,256,584,-73
-256,-412,15676,511,584,-91
-256,-376,15720,511,594,-80
-256,-392,15956,256,594,-79
-256,-468,15736,511,568,-99
-256,-432,15736,511,587,-76
-256,-388,15764,511,575,-88
-256,-460,15668,511,573,-91
-256,-412,15932,256,608,-83
-256,-388,15696,511,582,-72
-256,-424,16004,256,562,-86
-256,-408,15700,511,587,-105
-256,-352,15712,511,557,-81
-256,-396,15724,511,568,-73
-256,-372,15948,256,565,-97
-256,-408,15688,511,577,-72
-256,-356,15948,256,576,-67
-256,-384,15664,511,575,-92
-256,-440,15968,256,579,-102
-256,-420,15716,511,588,-85
-256,-380,15944,256,567,-77
-256,-464,15956,511,570,-79
-256,-408,15748,256,575,-81
-256,-352,16012,256,572,-100
-256,-400,15952,256,560,-108
-256,-356,16028,256,566,-82
-256,-436,15908,256,576,-77
-256,-392,15936,256,577,-83
-256,-340,15760,511,582,-75
-256,-372,15928,256,574,-64
-256,-360,15736,511,565,-72
-256,-464,15728,511,575,-87
-256,-448,15696,511,576,-78
-256,-360,15936,256,600,-90
-256,-440,15960,256,587,-85
-256,-344,15716,511,567,-59
-256,-344,15700,256,584,-76
-256,-404,16008,256,587,-89
-256,-376,15696,511,579,-75
-256,-384,15668,511,585,-62
-256,-424,15708,511,594,-92
-256,-360,15672,511,601,-83
-256,-404,15944,256,582,-75
-256,-368,15796,511,574,-94
-256,-492,15724,511,576,-105
-256,-396,15696,511,601,-92
-256,-376,15968,256,601,-71
-512,-264,16016,256,584,-96
-256,-440,15768,511,580,-93
-256,-440,15728,511,594,-60
-256,-428,15992,256,600,-73
-256,-360,15716,511,563,-90
-256,-468,15700,511,563,-75
-256,-392,15696,511,606,-75
-256,-392,15992,256,577,-82
-256,-380,15916,256,566,-78
-256,-384,16008,256,566,-70
-256,-380,15728,511,573,-77
-256,-432,15696,511,577,-95
-256,-372,15680,511,577,-92
-256,-444,15980,256,571,-81
-256,-424,15964,256,578,-81
-256,-376,15940,256,570,-75
-256,-352,15984,256,579,-75
-256,-400,15992,256,562,-107
-256,-420,15732,511,575,-85
-256,-360,15752,511,574,-79
-256,-344,15684,511,579,-75
-256,-356,15700,511,584,-81
-256,-384,15904,256,589,-73
-256,-364,15680,511,577,-80
-256,-440,15900,256,574,-80
-256,-416,15972,256,564,-94
-256,-408,15976,256,562,-78
-256,-364,15936,256,585,-82
-256,-444,15704,511,578,-74
-256,-388,15972,256,566,-80
-256,-344,15712,256,558,-85
-256,-400,15696,511,589,-83
-256,-368,15696,511,575,-59
-256,-376,16020,256,566,-78
-256,-348,15696,511,568,-75
-256,-444,15932,256,567,-78
-256,-448,15716,511,566,-98
-256,-396,16012,256,588,-68
-256,-360,15924,256,577,-56
-256,-320,15944,256,553,-81
-256,-372,15692,511,589,-79
-256,-344,15684,511,576,-74
-256,-408,15716,511,575,-53
-256,-464,15628,511,577,-73
-256,-424,15724,511,582,-91
-256,-420,15700,511,592,-74
-256,-408,15724,511,587,-64
-256,-400,15992,256,575,-77
-256,-344,15948,256,578,-63
-256,-432,15960,256,579,-68
-256,-412,15728,511,580,-70
-256,-356,15708,511,566,-76
-256,-372,15704,511,583,-84
-256,-388,15704,511,585,-93
-256,-440,15896,256,579,-100
-256,-432,15724,511,574,-85
-256,-384,15680,511,572,-69
-256,-392,15716,511,589,-72
-256,-416,15692,511,582,-77
-256,-312,15744,511,565,-87
-256,-408,15720,511,575,-76
-256,-428,15980,256,574,-100
-256,-284,15732,511,574,-83
-256,-384,15716,511,576,-66
-256,-440,15988,256,576,-78
-256,-372,15720,511,571,-81
-256,-404,16000,256,584,-91
-256,-400,15732,511,583,-83
-256,-368,15720,511,598,-69
-256,-324,15676,511,573,-74
-256,-396,15704,511,570,-82
-256,-368,16008,256,592,-91
-256,-404,15708,511,558,-86
-256,-372,15748,511,577,-77
-256,-432,15788,511,562,-62
-256,-432,15668,511,567,-84
-256,-392,15668,511,583,-87
-256,-412,15796,511,582,-52
-256,-336,15692,511,584,-66
-256,-364,15728,511,560,-85
-256,-464,15680,511,563,-85
-256,-392,15936,256,582,-87
-256,-428,15732,511,577,-99
-256,-400,15728,511,592,-88
-256,-376,15720,511,595,-78
-256,-412,15768,511,576,-69
-256,-400,15708,511,566,-95
-256,-396,15720,511,569,-103
-256,-424,15916,256,573,-71
-256,-424,16052,256,570,-69
-256,-376,15716,511,579,-62
-256,-356,15744,511,592,-65
-256,-380,15704,511,561,-71
-256,-396,16024,256,581,-97
-256,-400,15688,511,574,-75
-256,-380,15748,511,586,-99
-256,-432,15636,511,573,-51
-256,-360,15692,511,574,-55
-256,-436,15892,256,606,-72
-256,-388,15708,511,592,-86
-256,-452,15944,256,592,-82
-256,-412,15972,256,566,-95
-256,-392,15724,511,581,-95
-256,-432,15764,511,595,-74
-256,-400,15952,256,571,-68
-256,-344,15676,511,577,-94
-256,-344,15692,511,585,-104
-256,-380,15992,256,577,-85
-256,-348,15944,256,573,-99
-256,-352,15920,256,591,-85
-256,-428,15736,511,585,-101
-256,-360,15712,256,582,-108
-256,-364,15992,256,577,-85
-256,-344,15696,511,580,-91
-256,-384,15724,511,587,-80
-256,-360,16024,256,566,-100
-256,-412,15940,511,566,-86
-256,-316,15988,256,576,-89
-256,-380,15700,511,579,-90
-256,-384,15732,511,579,-63
-256,-340,15996,256,600,-69
-256,-340,15684,511,563,-120
-256,-372,15712,511,594,-71
-256,-384,15940,256,582,-67
-256,-344,15944,256,574,-91
-256,-400,15952,256,582,-78
-256,-376,15708,511,582,-91
-256,-404,15956,256,580,-81
-256,-384,15724,511,592,-93
-256,-412,15696,511,572,-87
-256,-416,15692,511,570,-79
-256,-372,15992,256,579,-79
-256,-388,15716,511,603,-76
-256,-384,15724,511,571,-60
-256,-436,15732,511,582,-99
-256,-344,15704,511,586,-75
-256,-404,15960,256,580,-95
-256,-392,15724,511,570,-97
-256,-400,15660,511,578,-74
-256,-396,15988,256,582,-73
-256,-420,15732,511,606,-78
-256,-420,15968,256,573,-96
-256,-388,15748,511,579,-76
-256,-340,15924,256,578,-86
-256,-440,15684,511,577,-85
-256,-444,15968,256,589,-92
-256,-420,15716,511,581,-70
-256,-428,15768,511,577,-65
-256,-452,15760,511,581,-72
-256,-456,15740,256,586,-91
-256,-412,15760,511,594,-69
-256,-368,15700,511,581,-71
-256,-392,15968,256,579,-100
-256,-428,15948,256,576,-88
-256,-420,15988,256,576,-92
-256,-360,15944,256,589,-69
-256,-440,15664,511,589,-77
-256,-428,15756,511,572,-65
-256,-364,15760,511,566,-80
-256,-428,15648,511,561,-75
-256,-412,15960,256,591,-80
-256,-428,15972,256,573,-61
-256,-372,15648,511,583,-63
-256,-396,15964,256,592,-63
-256,-424,15680,511,564,-76
-256,-384,15716,511,592,-74
-256,-356,15792,511,589,-101
-256,-364,15764,511,579,-73
-256,-348,15704,511,567,-96
-256,-360,15684,511,570,-70
-256,-416,16004,256,595,-88
-256,-404,15728,511,587,-97
-256,-324,15996,256,581,-88
-256,-408,15988,256,588,-85
-256,-416,15716,511,570,-88
-256,-460,15672,511,574,-76
-256,-356,15712,511,588,-79
-256,-300,15720,511,588,-92
-256,-416,15924,256,575,-101
-256,-448,15972,256,569,-80
-256,-460,15940,256,574,-63
-256,-420,15960,256,579,-63
-256,-388,16008,256,564,-77
-256,-412,15720,511,574,-78
-256,-384,16004,256,563,-87
-256,-276,15716,256,550,-77
-256,-396,15748,511,574,-87
-256,-420,15696,511,573,-105
-256,-416,15732,511,588,-107
-256,-352,16012,256,593,-84
-256,-400,15788,511,556,-88
-256,-404,15988,256,582,-81
-256,-364,15756,511,568,-65
-256,-412,15768,511,567,-77
-256,-392,15944,256,575,-78
-256,-440,15740,511,579,-76
-256,-364,15744,511,558,-85
-256,-404,16004,256,577,-79
-256,-448,15716,511,574,-102
-256,-388,15736,511,579,-102
-256,-400,15732,511,590,-80
-256,-380,15672,511,582,-79
-256,-360,15940,256,581,-62
-256,-340,15712,511,584,-72
-256,-376,15964,256,570,-81
-256,-372,15688,511,588,-81
-256,-356,15980,256,577,-77
-256,-368,15700,511,581,-73
-256,-428,15944,256,552,-91
-256,-436,15772,256,579,-72
-256,-376,15732,511,576,-64
-256,-408,15728,256,573,-85
-256,-424,15772,511,577,-94
-256,-392,15736,511,572,-73
-256,-400,15996,256,567,-82
-256,-356,15724,511,579,-75
-256,-404,15696,511,592,-68
-256,-428,16012,256,586,-47
-256,-300,15760,511,579,-81
-256,-284,15928,256,580,-80
-256,-412,15756,511,559,-91
-256,-428,15784,511,569,-120
-256,-432,15892,256,569,-86
-256,-376,15660,511,583,-83
-256,-404,16004,256,579,-85
-256,-356,15992,256,571,-92
-256,-404,15836,511,576,-93
-256,-408,15984,256,551,-73
-256,-392,15764,511,585,-65
-256,-364,15744,511,595,-52
-256,-388,15712,511,597,-65
-256,-388,16008,256,583,-78
-256,-408,15988,256,583,-67
-256,-428,15704,511,579,-96
-256,-412,15660,511,573,-81
-256,-428,15728,511,595,-85
-256,-396,15956,256,587,-88
-256,-380,15716,511,581,-99
-256,-384,16020,256,569,-82
-256,-368,15816,511,576,-69
-256,-376,15696,511,585,-77
-256,-388,15696,511,567,-81
-256,-392,15944,256,563,-84
-256,-368,15996,256,575,-80
-256,-408,15960,256,592,-92
-256,-376,15716,511,587,-91
-256,-360,15740,511,599,-76
-256,-420,15668,511,572,-89
-256,-396,15744,511,556,-75
-256,-416,15988,256,584,-56
-256,-384,15976,256,609,-99
-256,-428,15996,256,573,-83
-256,-388,15748,511,547,-62
-256,-308,15952,256,570,-57
-256,-408,16008,256,565,-63
-256,-368,15712,511,555,-76
-256,-412,15760,511,581,-71
-256,-396,15712,511,579,-74
-256,-360,15980,256,560,-65
-256,-424,15956,256,570,-63
-256,-376,15944,256,578,-75
-256,-372,15668,511,556,-96
-256,-376,16032,256,584,-95
-256,-412,15932,256,584,-104
-256,-456,15668,511,592,-107
-256,-428,15680,511,581,-93
-256,-380,16004,256,568,-105
-256,-364,15700,511,575,-103
-256,-392,15772,511,571,-89
-256,-388,15904,256,577,-90
-256,-448,15680,511,574,-64
-256,-436,15928,256,550,-73
-256,-360,15712,511,583,-105
-256,-368,15756,511,578,-90
-256,-460,15952,256,550,-66
-256,-488,15788,511,592,-89
-256,-400,15660,511,568,-86
-256,-392,15960,256,571,-103
-256,-328,15716,511,586,-101
-256,-372,15672,256,569,-80
-256,-384,15716,511,560,-73
-256,-456,15712,256,578,-74
-256,-364,15956,256,573,-88
-256,-408,15728,511,574,-90
-256,-416,15680,511,569,-68
-256,-448,15992,256,592,-63
-256,-392,15988,256,564,-80
-256,-428,15764,256,566,-73
-256,-412,15724,511,583,-71
-256,-380,15996,256,592,-65
-256,-420,15920,256,600,-86
-256,-384,15688,511,607,-80
-256,-404,15696,511,591,-78
-256,-364,16012,256,583,-93
-256,-420,15924,256,568,-108
-256,-360,15756,511,579,-98
-256,-324,15928,256,574,-71
-256,-444,15688,511,569,-61
-256,-364,15760,511,550,-90
-256,-420,15728,511,592,-81
-256,-392,16004,256,575,-78
-256,-344,15720,511,575,-82
-256,-416,15732,256,567,-73
-256,-380,15716,511,586,-78
-256,-412,15900,256,591,-84
-256,-436,15712,511,572,-86
-256,-416,15672,256,583,-62
-256,-356,15728,511,596,-58
-256,-420,15704,511,595,-72
-256,-448,15740,511,567,-105
-256,-388,15932,256,588,-75
-256,-428,15700,511,576,-104
-256,-464,15908,256,569,-67
-256,-412,15728,511,570,-56
-256,-368,16020,256,575,-80
-256,-404,15988,256,602,-68
-256,-384,15680,511,566,-80
-256,-460,15956,256,590,-63
-256,-388,15672,511,575,-85
-256,-396,15764,511,573,-117
-256,-400,15652,511,576,-85
-256,-404,15936,256,565,-82
-256,-392,15996,256,583,-100
-256,-364,15980,256,572,-48
-256,-372,15672,511,565,-70
-256,-368,15700,511,559,-79
-256,-420,15988,511,572,-65
-256,-376,15916,256,576,-73
-256,-396,16016,256,587,-83
-256,-420,15700,511,571,-72
-256,-364,15704,511,574,-83
-256,-352,15952,256,596,-89
-256,-428,15736,511,572,-88
-256,-372,15748,511,561,-90
-256,-356,15652,511,578,-94
-256,-420,15744,511,589,-99
-256,-372,15760,256,572,-83
-256,-348,15716,511,585,-85
-256,-404,15948,256,570,-102
-256,-388,15984,256,563,-107
-256,-432,15952,256,580,-70
-256,-416,15716,511,571,-64
-256,-420,15732,511,565,-81
-256,-368,16012,256,580,-81
-256,-384,15700,511,569,-77
-512,-260,15972,256,579,-74
-256,-384,15676,511,576,-81
-256,-372,15700,511,561,-76
-256,-396,15720,511,594,-108
-256,-384,15688,511,601,-95
-256,-364,15732,511,596,-66
-256,-420,15728,511,571,-80
-256,-452,15944,511,578,-77
-256,-432,15776,256,596,-82
-256,-384,15664,511,567,-90
-256,-444,15964,256,567,-80
-256,-384,15968,256,568,-93
-256,-412,15728,511,577,-96
-256,-412,15724,511,576,-75
-256,-456,15756,511,576,-69
-256,-440,15940,256,571,-74
-256,-432,15740,511,612,-79
-256,-480,15972,256,579,-73
-256,-348,15668,511,577,-84
-256,-296,15748,511,581,-96
-256,-404,15760,511,573,-84
-256,-340,15764,511,593,-79
-256,-504,15960,256,577,-88
-256,-368,15748,511,574,-113
-256,-384,15716,511,585,-86
-256,-372,15976,256,561,-97
-256,-364,15736,511,575,-83
-256,-372,15928,256,604,-76
-256,-432,15968,256,570,-87
-256,-380,15704,511,556,-61
-256,-412,15720,511,581,-74
-256,-420,15756,511,568,-114
-256,-448,15992,256,550,-89
-256,-404,16008,256,573,-42
-256,-340,15684,511,577,-71
-256,-384,15756,511,581,-93
-256,-380,15976,256,572,-83
-256,-356,15736,511,582,-86
-256,-396,16056,256,589,-67
-256,-372,15716,511,586,-75
-256,-400,15980,256,588,-66
-256,-328,15716,256,599,-90
-256,-416,15664,511,594,-78
-256,-380,15980,256,567,-56
-256,-388,15644,511,556,-62
-256,-360,15940,256,570,-42
-256,-388,15688,511,587,-74
-256,-352,15972,256,576,-72
-256,-372,15636,511,583,-74
-256,-380,15928,256,606,-85
-256,-348,15980,256,605,-92
-256,-376,15696,511,597,-81
-256,-428,15716,511,592,-98
-256,-392,15968,256,592,-83
-256,-448,15776,511,589,-85
-256,-388,15732,511,565,-87
-256,-392,15712,511,565,-94
-256,-396,15968,256,570,-90
-256,-360,15992,256,586,-85
-256,-372,15736,511,591,-96
-256,-408,15696,511,588,-89
-256,-436,15736,511,589,-56
-256,-412,15980,256,594,-49
-256,-420,15732,511,590,-80
-256,-348,15784,511,578,-82
-256,-396,15956,256,577,-63
-256,-408,15764,511,579,-77
-256,-392,15716,511,589,-69
-256,-384,15712,511,569,-68
-256,-416,15768,511,595,-73
-256,-368,15984,256,574,-67
-256,-452,15716,511,578,-81
-256,-332,15676,511,572,-92
-256,-412,15952,256,591,-107
-256,-428,16028,256,570,-97
-256,-428,15948,256,576,-75
-256,-380,15752,511,559,-78
-256,-372,15740,511,593,-82
-256,-392,15796,511,597,-88
-256,-464,15692,511,573,-99
-256,-472,15964,256,576,-94
-256,-396,15704,511,573,-91
-256,-364,15664,511,572,-89
-256,-384,15680,511,565,-106
-256,-408,15720,511,612,-76
-256,-348,15944,256,616,-64
-256,-324,15728,511,583,-83
-256,-376,15728,511,568,-67
-256,-412,15692,511,584,-62
-256,-400,15980,256,578,-49
-256,-460,15748,511,589,-70
-256,-368,15764,256,573,-98
-256,-336,15708,511,566,-68
-256,-432,15960,256,586,-69
-256,-420,15648,511,582,-85
-256,-452,15720,511,572,-76
-256,-444,15728,511,590,-77
-256,-380,15696,511,571,-61
-256,-376,15724,511,586,-60
-256,-428,16000,256,591,-79
-256,-320,15684,511,583,-71
-256,-380,15672,511,593,-78
-256,-404,15732,511,571,-91
-256,-428,15964,256,593,-69
-256,-408,15724,511,585,-75
-256,-396,15984,256,564,-53
-256,-388,15680,511,545,-81
-256,-392,15984,256,577,-93
-256,-344,15672,511,584,-81
-256,-444,15732,511,583,-74
-256,-412,15984,256,560,-66
-256,-428,15932,256,563,-74
-256,-452,15948,256,567,-50
-256,-404,15968,256,565,-78
-256,-384,15712,511,579,-80
-256,-404,15716,511,564,-93
-256,-428,15756,511,582,-68
-256,-396,15680,511,577,-63
-256,-396,15996,256,593,-82
-256,-420,15928,256,586,-75
-256,-396,15712,511,574,-80
-256,-412,15716,511,559,-92
-256,-420,15708,511,566,-90
-256,-404,16036,256,572,-69
-256,-376,15728,511,577,-103
-256,-372,15684,511,576,-106
-256,-368,15724,511,586,-95
-256,-436,15732,511,595,-84
-256,-368,15984,256,582,-89
-256,-388,15688,511,577,-94
-256,-368,15716,511,578,-74
-256,-428,15712,511,566,-98
-256,-440,15700,511,582,-85
-256,-352,15688,511,593,-95
-256,-384,15904,256,579,-64
-256,-424,15712,511,574,-76
-256,-396,15716,511,579,-95
-256,-364,15992,256,578,-94
-256,-352,15732,511,574,-74
-256,-372,16024,256,571,-82
-256,-396,15760,511,574,-89
-256,-384,15660,511,563,-81
-256,-388,15912,256,593,-93
-256,-364,15724,511,582,-65
-256,-424,15988,256,560,-102
-256,-376,15928,256,594,-76
-256,-372,15704,256,575,-78
-256,-400,15952,256,557,-81
-256,-380,15748,511,581,-72
-256,-328,15712,511,590,-89
-256,-328,15976,256,574,-76
-256,-396,16000,256,545,-99
-256,-456,15712,511,593,-92
-256,-416,15712,511,589,-71
-256,-472,15700,511,565,-93
-256,-412,15756,511,556,-76
-256,-380,15712,511,554,-86
-256,-436,15948,256,573,-74
-256,-372,15744,511,581,-89
-256,-436,15980,256,587,-83
-256,-376,15776,511,556,-79
-256,-404,15792,511,581,-108
-256,-456,15976,256,582,-81
-256,-400,15712,511,580,-97
-256,-436,15956,256,590,-56
-256,-388,15728,511,588,-59
-256,-440,15720,256,585,-74
-256,-456,15708,511,578,-75
-256,-376,16004,256,576,-101
-256,-412,16024,256,572,-89
-256,-416,15720,511,574,-87
-256,-444,15712,511,601,-61
-256,-352,15748,511,605,-90
-256,-468,15712,511,582,-71
-256,-392,15712,511,557,-76
-256,-416,15664,511,583,-79
-256,-380,15672,511,602,-82
-256,-372,15744,511,589,-73
-256,-408,15748,256,570,-79
-256,-380,15952,256,598,-54
-256,-400,15708,511,569,-56
-256,-404,15760,511,555,-82
-256,-344,16044,256,591,-64
-256,-408,15684,511,582,-90
-256,-408,15940,256,596,-81
-256,-404,15680,511,600,-84
-256,-388,15732,511,577,-88
-256,-384,15720,511,565,-78
-256,-448,15968,256,571,-87
-256,-356,15724,511,578,-76
-256,-480,15748,511,591,-81
-256,-420,15720,511,590,-74
-256,-404,15720,511,568,-87
-256,-400,15776,511,563,-72
-256,-396,15736,511,576,-78
-256,-424,15932,256,570,-75
-256,-412,15724,511,590,-86
-256,-392,15760,511,591,-70
-256,-424,15720,511,578,-74
-256,-432,15728,511,581,-72
-256,-324,15784,511,574,-97
-256,-380,15720,511,593,-103
-256,-352,15700,511,589,-79
-256,-392,16028,256,572,-89
-256,-404,15696,511,580,-92
-256,-440,15680,511,585,-80
-256,-420,15700,511,570,-103
-256,-368,15736,511,585,-90
-256,-408,16024,256,579,-83
-256,-408,15676,511,556,-93
-256,-372,15684,511,582,-94
-256,-368,15764,511,567,-90
-256,-364,16040,256,575,-92
-256,-440,15980,256,584,-57
-256,-328,15932,256,566,-60
-256,-368,15728,511,585,-93
-256,-352,15776,511,579,-90
-256,-436,15708,511,588,-86
-256,-352,15744,511,558,-90
-256,-348,15728,511,559,-87
-256,-436,15744,511,570,-76
-256,-460,15972,256,566,-96
-256,-360,15728,511,591,-95
-256,-412,15916,256,586,-95
-256,-392,15708,256,561,-69
-256,-364,15756,511,564,-65
-256,-416,15948,256,560,-97
-256,-448,15948,256,559,-103
-256,-388,15648,511,574,-69
-256,-412,15688,511,559,-86
-256,-360,15748,511,581,-85
-256,-408,16008,256,588,-67
-256,-324,15724,511,581,-79
-256,-416,15736,511,585,-83
-256,-388,15712,511,578,-94
-256,-420,15664,511,574,-72
-256,-404,15708,511,566,-86
-256,-388,15756,511,579,-73
-256,-432,15696,511,588,-74
-256,-416,15976,256,595,-87
-256,-384,15704,511,591,-105
-256,-480,15960,256,576,-93
-256,-400,15724,511,568,-81
-256,-400,15704,256,579,-63
-256,-420,15996,256,606,-75
-256,-380,15676,511,580,-105
-256,-388,15712,511,590,-56
-256,-412,16048,256,590,-69
-256,-380,15728,511,577,-92
-256,-372,16020,256,570,-77
-256,-432,15744,511,571,-81
-256,-324,15684,511,563,-65
-256,-364,15920,256,585,-64
-256,-336,15732,511,576,-79
-256,-404,15728,256,583,-63
-256,-344,15744,511,587,-50
-256,-376,15708,511,569,-86
-256,-408,15968,256,560,-89
-256,-468,16036,256,611,-75
-256,-460,16012,256,574,-68
-256,-384,15716,511,541,-77
-256,-364,15764,511,576,-73
-256,-344,15960,256,584,-61
-256,-380,15704,256,583,-75
-256,-372,15704,511,578,-87
-256,-392,15736,511,605,-83
-256,-340,15740,511,595,-86
-256,-388,15740,511,572,-99
-256,-380,15692,511,607,-80
-256,-348,15720,256,585,-76
-256,-400,15696,511,583,-73
-256,-420,15704,511,573,-82
-256,-420,15972,256,583,-72
-256,-384,15752,511,583,-75
-256,-416,15712,511,572,-78
-256,-436,15984,256,591,-84
-256,-456,15988,256,582,-90
-256,-404,15720,511,564,-88
-256,-352,15920,256,573,-74
-256,-360,15748,511,590,-86
-256,-416,15996,256,585,-70
-256,-396,15964,256,584,-81
-256,-364,15740,511,576,-81
-256,-376,15952,256,579,-79
-256,-420,15728,511,582,-100
-256,-488,15720,256,586,-95
-256,-452,15732,511,563,-77
-256,-400,15784,256,587,-88
-256,-324,15736,511,569,-100
-256,-404,15752,511,565,-75
-256,-456,15716,511,592,-77
-256,-416,15972,256,583,-80
-256,-412,15712,511,588,-74
-256,-348,15936,256,589,-78
-256,-448,15740,511,574,-89
-256,-396,15692,511,585,-83
-256,-424,15732,511,580,-81
-256,-440,16024,256,574,-77
-256,-388,15996,256,573,-73
-256,-480,15728,511,560,-92
-256,-392,15708,511,582,-92
-256,-388,15992,256,578,-92
-256,-408,15644,511,582,-91
-256,-380,15720,511,589,-75
-256,-348,15736,511,578,-90
-256,-400,15976,256,572,-78
-256,-388,15956,256,566,-88
-256,-416,15696,511,574,-75
-256,-432,15792,511,579,-42
-256,-420,15728,511,582,-86
-256,-360,15792,256,577,-97
-256,-428,15732,511,576,-85
-256,-412,15740,511,594,-103
-256,-348,15716,511,577,-75
-256,-404,15752,511,572,-86
-256,-424,16036,256,582,-98
-256,-408,15712,511,596,-56
-256,-416,15948,256,607,-79
-256,-364,15732,511,567,-87
-256,-412,15960,256,574,-97
-256,-372,15776,511,605,-82
-256,-380,15732,511,576,-71
-256,-340,15688,511,610,-81
-256,-428,15748,511,581,-93
-256,-380,15940,256,580,-78
-256,-456,15736,511,567,-83
-256,-372,15688,511,581,-86
-256,-392,15700,511,587,-63
-256,-380,15920,256,595,-67
-256,-480,15700,511,574,-74
-256,-404,15752,511,590,-69
-256,-324,15776,511,600,-86
-256,-340,15720,511,566,-76
-256,-328,16028,256,563,-83
-256,-416,15676,511,579,-70
-256,-512,15736,511,574,-75
-256,-408,15968,256,586,-72
-256,-376,15964,256,592,-67
-256,-396,15776,511,584,-45
-256,-396,15704,256,587,-108
-256,-392,15724,511,586,-103
-256,-376,15668,511,578,-81
-256,-368,15700,511,582,-73
-256,-464,15712,511,578,-62
-256,-348,15724,511,566,-70
-256,-396,16028,256,571,-71
-256,-372,15728,511,589,-98
-256,-404,16004,256,580,-73
-256,-396,15968,256,578,-101
-256,-332,15952,256,567,-106
-256,-372,16000,256,581,-88
-256,-404,15652,511,589,-96
-256,-472,15664,511,585,-93
-256,-380,15720,511,602,-77
-256,-408,15656,511,595,-77
-256,-316,15988,256,586,-79
-256,-428,16024,256,604,-80
-256,-404,15736,511,583,-87
-256,-460,15780,511,575,-84
-256,-404,15736,511,576,-81
-256,-392,15704,511,569,-86
-256,-420,15940,256,563,-91
-256,-432,15900,256,577,-75
-256,-392,15624,511,566,-78
-256,-412,15732,511,568,-70
-256,-408,15744,511,594,-91
-256,-376,15992,256,593,-92
-256,-448,15704,511,582,-109
-256,-412,16004,256,553,-92
-256,-332,15724,511,573,-62
-256,-384,15728,511,572,-85
-256,-392,15728,511,563,-90
-256,-384,15684,511,583,-78
-256,-368,15964,256,578,-88
-256,-340,15720,511,567,-70
-256,-400,15724,511,573,-90
-256,-400,15988,256,588,-80
-256,-400,15756,511,582,-61
-256,-388,15728,511,580,-51
-256,-384,15740,511,567,-87
-256,-400,15764,511,577,-86
-256,-404,15768,511,561,-71
-256,-452,15988,256,575,-92
-256,-400,15952,256,574,-112
-256,-416,15684,511,577,-71
-256,-444,15976,256,574,-94
-256,-376,15716,511,585,-98
-256,-380,15976,256,579,-95
-256,-420,15748,511,569,-89
-256,-392,15720,511,587,-67
-256,-432,15744,511,583,-91
-256,-400,15760,511,574,-75
-256,-452,15644,511,566,-88
-256,-376,15952,256,571,-89
-256,-428,15736,256,571,-70
-256,-400,16016,256,581,-68
-256,-364,15704,511,582,-96
-256,-452,15676,511,585,-52
-256,-376,15952,256,586,-79
-256,-380,15952,256,587,-77
-256,-424,15720,511,590,-79
-256,-380,16020,256,573,-71
-256,-368,15740,511,588,-55
-256,-400,15732,511,574,-85
-256,-408,15720,511,585,-84
-256,-360,15976,256,597,-83
-256,-448,15948,256,576,-69
-256,-380,15688,511,568,-75
-256,-432,15936,256,566,-58
-256,-420,15736,511,560,-94
-256,-396,15748,511,554,-103
-256,-348,15672,511,562,-89
-256,-372,15700,511,547,-55
-256,-300,15984,256,564,-71
-256,-368,15940,256,598,-73
-256,-408,15744,511,581,-65
-256,-424,15972,256,578,-81
-256,-368,15740,511,578,-80
-256,-376,16020,256,582,-59
-256,-456,15676,511,601,-72
-256,-392,15972,256,589,-89
-256,-380,15764,511,561,-74
-256,-368,15764,511,562,-81
-256,-420,15704,511,584,-75
-256,-336,15664,511,584,-80
-256,-424,15684,511,591,-61
-256,-416,15732,511,597,-80
-256,-404,16044,256,561,-93
-256,-396,15952,256,578,-92
-256,-400,15752,511,578,-88
-256,-360,15716,511,575,-77
-256,-376,15956,256,570,-109
-256,-392,15756,511,588,-105
-256,-424,15760,511,597,-87
-256,-360,15660,256,581,-76
-256,-364,16044,256,582,-74
-256,-368,15784,511,581,-83
-256,-372,15736,511,572,-93
-256,-376,15696,511,579,-80
-256,-412,15696,256,562,-96
-256,-352,15708,511,573,-74
-256,-400,15752,511,578,-99
-256,-332,15956,256,582,-100
-256,-428,15776,511,580,-89
-256,-376,15704,511,600,-83
-256,-380,16020,256,592,-76
-256,-408,16008,256,573,-96
-256,-396,15684,511,582,-80
-256,-420,16024,256,571,-94
-256,-380,15672,511,567,-92
-256,-476,15716,511,567,-88
-256,-396,15960,256,563,-64
-256,-344,15676,511,583,-54
-256,-384,15924,256,591,-80
-256,-452,15700,511,564,-95
-256,-324,15700,511,567,-82
-256,-392,16004,256,557,-81
-256,-312,16012,256,587,-88
-256,-408,15668,511,583,-73
-256,-372,15712,256,581,-91
-256,-408,16012,256,582,-104
-256,-380,15992,256,570,-81
-256,-380,15752,511,567,-73
-256,-352,16000,256,595,-70
-256,-472,16028,256,574,-63
-256,-376,15752,511,546,-61
-256,-428,16012,256,580,-83
-256,-404,15972,256,573,-87
-256,-444,15704,511,587,-76
-256,-404,15684,511,572,-84
-256,-372,15756,511,585,-84
-256,-404,15972,256,582,-89
-256,-416,15748,511,582,-89
-256,-396,15708,511,569,-94
-256,-384,15968,256,591,-85
-256,-384,15708,511,580,-77
-256,-420,15760,511,574,-95
-256,-400,15984,256,589,-77
-256,-428,15756,511,589,-73
-256,-404,15720,511,577,-99
-256,-368,15692,511,575,-88
-256,-360,15972,256,582,-82
-256,-396,15956,256,579,-91
-256,-388,15696,511,590,-94
-256,-372,15712,511,583,-107
-256,-428,15948,256,569,-83
-256,-388,15708,511,578,-68
-256,-364,15760,511,576,-74
-256,-356,15964,256,574,-97
-256,-400,15996,256,580,-86
-256,-388,15688,511,583,-86
-256,-340,15712,511,570,-79
-256,-440,15756,511,580,-114
-256,-384,15704,511,588,-84
-256,-384,15780,511,589,-74
-256,-352,15744,511,602,-76
-256,-352,15804,511,597,-78
-256,-364,15736,511,579,-89
-256,-388,15936,256,581,-83
-256,-336,15996,256,578,-90
-256,-384,15704,511,580,-73
-256,-376,15760,511,566,-79
-256,-440,15972,256,573,-75
-256,-400,15700,256,580,-88
-256,-432,15736,511,581,-72
-256,-452,16028,256,570,-54
-256,-340,15740,256,598,-67
-256,-436,15728,511,581,-66
-256,-312,15736,511,588,-99
-256,-416,16016,256,592,-58
-256,-432,15748,511,575,-75
-256,-384,15756,511,568,-88
-256,-344,15716,511,573,-92
-256,-384,15736,511,578,-84
-256,-460,15996,256,571,-93
-256,-416,16040,256,585,-89
-256,-428,15732,511,577,-94
-256,-380,15748,511,593,-81
-256,-360,15664,511,596,-59
-512,-292,15752,511,565,-91
-256,-376,15964,256,559,-73
-256,-440,15720,511,563,-90
-256,-420,15728,511,573,-97
-256,-432,15720,511,565,-82
-256,-408,15764,511,572,-77
-256,-424,16036,256,564,-82
-256,-404,15732,511,584,-96
-256,-428,15684,511,591,-87
-256,-408,15980,256,571,-61
-256,-452,15716,511,568,-102
-256,-424,15828,511,587,-67
-256,-472,15692,511,579,-77
-256,-396,15760,511,577,-70
-256,-444,15676,511,587,-73
-256,-440,15744,511,564,-98
-256,-392,16016,256,554,-108
-256,-424,16064,256,568,-80
-256,-336,15672,511,586,-79
-256,-432,15668,511,584,-94
-256,-428,16040,256,578,-66
-256,-432,15740,511,569,-81
-256,-404,15716,511,588,-79
-256,-392,15668,511,560,-97
-256,-392,15748,511,549,-87
-256,-428,16044,256,591,-79
-256,-432,15716,511,585,-91
-256,-392,15996,256,569,-62
-256,-392,15784,511,583,-86
-256,-412,15712,511,567,-88
-256,-384,15948,256,560,-93
-256,-364,15672,511,552,-95
-256,-420,15700,511,581,-93
-256,-420,15728,511,581,-69
-256,-436,15744,511,567,-67
-256,-376,15740,511,585,-56
-256,-364,15740,511,594,-91
-256,-412,15940,256,553,-95
-256,-404,15752,511,536,-87
-256,-360,15756,511,564,-86
-256,-392,15992,256,586,-89
-256,-420,15696,511,586,-69
-256,-364,15792,511,582,-53
-256,-416,15724,511,572,-83
-256,-348,15784,511,565,-96
-256,-396,16028,256,575,-52
-256,-392,15720,511,576,-67
-256,-392,15948,256,588,-74
-256,-428,15980,256,564,-87
-256,-416,15672,511,560,-81
-256,-424,15720,511,578,-70
-256,-364,15692,511,593,-98
-256,-400,15748,511,588,-87
-256,-376,15792,511,583,-66
-256,-392,15708,511,564,-67
-256,-396,15756,511,575,-64
-256,-396,15956,256,568,-95
-256,-428,15720,511,554,-91
-256,-376,15712,511,556,-98
-256,-428,15716,511,580,-91
-256,-440,15648,511,563,-76
-256,-372,15712,511,582,-81
-256,-432,15712,511,573,-74
-256,-400,15696,511,568,-97
-256,-356,15720,511,568,-65
-256,-344,15956,256,589,-85
-256,-404,15740,511,591,-105
-256,-344,15692,511,560,-74
-256,-360,15708,511,567,-71
-256,-424,15728,511,597,-77
-256,-356,15904,256,594,-83
-256,-356,15712,511,590,-62
-256,-324,15940,256,603,-91
-256,-384,15988,256,570,-82
-256,-368,15932,256,565,-76
-256,-408,15744,256,572,-87
-256,-392,15740,511,588,-78
-256,-396,15776,511,581,-58
-256,-384,15712,511,593,-80
-256,-480,15732,511,583,-73
-256,-392,16020,256,561,-67
-256,-388,15732,511,566,-85
-256,-404,16012,256,573,-85
-256,-344,16000,256,578,-73
-256,-384,15700,511,567,-79
-256,-408,15676,511,571,-74
-256,-440,15740,511,578,-81
-256,-400,15948,256,580,-80
-256,-376,15724,511,557,-87
-256,-400,15684,511,580,-93
-256,-372,15932,256,584,-73
-256,-320,15972,256,554,-79
-256,-304,15816,511,596,-64
-256,-360,15720,511,567,-53
-256,-400,15740,511,589,-90
-256,-428,15708,511,571,-72
-256,-444,15728,256,579,-92
-256,-364,15672,511,573,-91
-256,-388,15732,511,577,-78
-256,-392,15688,511,584,-79
-256,-412,15940,256,567,-76
-256,-356,15712,511,572,-90
-256,-356,15736,511,578,-65
-256,-400,15716,511,581,-76
-256,-416,15664,511,589,-81
-256,-436,15984,256,593,-86
-256,-432,15724,511,589,-75
-256,-400,15712,511,579,-97
-256,-464,15708,511,561,-101
-256,-332,15916,256,579,-101
-256,-452,15992,256,578,-70
-256,-372,15944,256,590,-102
-256,-408,15728,511,572,-87
-256,-404,15748,511,579,-94
-256,-476,15716,511,574,-88
-256,-332,15776,511,556,-71
-256,-416,15724,511,548,-90
-256,-356,15720,511,581,-83
-256,-456,16040,256,595,-65
-256,-368,15992,256,572,-67
-256,-420,15672,511,582,-83
-256,-356,15964,256,618,-85
-256,-404,15772,511,571,-100
-256,-400,15740,511,571,-86
-256,-372,15668,511,554,-65
-256,-424,15976,256,583,-100
-256,-484,16004,256,588,-100
-256,-424,15672,511,580,-72
-256,-424,15700,511,570,-56
-256,-384,15916,256,581,-71
-256,-400,16008,256,586,-87
-256,-376,15680,511,604,-91
-256,-376,15928,256,593,-75
-256,-448,15728,511,592,-73
-256,-332,15728,511,600,-69
-256,-376,15740,511,591,-71
-256,-420,16020,256,587,-68
-256,-380,15696,511,576,-77
-256,-400,15968,256,578,-76
-256,-368,15736,511,570,-73
-256,-420,15744,511,574,-78
-256,-388,15972,256,562,-68
-256,-424,15724,256,559,-89
-256,-372,15944,256,560,-97
-256,-392,16024,256,584,-64
-256,-460,15960,256,564,-65
-256,-452,15700,256,564,-80
-256,-400,15696,511,592,-77
-256,-420,15984,256,586,-92
-256,-380,15700,511,583,-81
-256,-372,15724,511,587,-90
-256,-448,15888,256,585,-72
-256,-432,15772,511,557,-74
-256,-380,16008,256,548,-66
-256,-408,15616,511,558,-80
-256,-384,15804,511,578,-91
-256,-392,15716,511,585,-103
-256,-476,15928,256,575,-69
-256,-404,15956,256,581,-78
-256,-368,15656,511,570,-97
-256,-484,16012,256,590,-87
-256,-404,15976,256,591,-64
-256,-408,15964,256,581,-61
-256,-404,15736,511,579,-66
-256,-380,15724,511,582,-87
-256,-352,15748,511,587,-82
-256,-404,15712,511,563,-89
-256,-384,15748,511,560,-97
-256,-448,16032,256,572,-68
-256,-456,15728,511,567,-80
-256,-388,15796,511,566,-88
-256,-388,15968,256,579,-99
-256,-408,15744,511,576,-63
-256,-420,15736,511,577,-86
-256,-408,15992,256,574,-86
-256,-408,15796,511,574,-82
-256,-388,15752,511,573,-93
-256,-436,15740,511,590,-77
-256,-356,15676,256,571,-90
-256,-432,15984,256,583,-71
-256,-408,15820,511,562,-77
-256,-480,15964,256,553,-81
-256,-368,15724,511,586,-65
-256,-444,15800,511,592,-71
-256,-308,15792,511,586,-70
-256,-372,15728,511,572,-83
-256,-348,16000,256,557,-91
-256,-420,15684,511,575,-92
-256,-456,15936,511,590,-65
-256,-404,15728,511,569,-80
-256,-368,15684,511,559,-86
-256,-340,15716,256,580,-80
-256,-348,15744,511,569,-76
-256,-404,15668,511,562,-66
-256,-416,15688,511,576,-83
-256,-420,15716,511,579,-83
-256,-388,15916,256,580,-95
-256,-360,15684,511,571,-84
-256,-436,16004,256,585,-91
-256,-384,15644,511,581,-87
-256,-368,15712,511,591,-106
-256,-344,15964,256,581,-112
-256,-312,16048,256,571,-97
-256,-428,16004,256,589,-79
-256,-384,15720,511,571,-102
-256,-404,15700,511,584,-89
-256,-440,16036,256,575,-93
-256,-384,15748,511,583,-108
-256,-396,15708,511,566,-86
-256,-388,15728,511,576,-64
-256,-400,15664,511,575,-72
-256,-448,15960,256,587,-76
-256,-400,15720,511,579,-99
-256,-412,15972,256,561,-87
-256,-408,15968,256,582,-81
-256,-352,15952,256,581,-93
-256,-372,15912,256,579,-84
-256,-324,15724,511,573,-105
-256,-408,15960,256,577,-57
-256,-400,15948,256,588,-42
-256,-392,15924,256,574,-85
-256,-376,15708,511,575,-100
-256,-336,15704,511,575,-82
-256,-392,15760,511,572,-81
-256,-320,15992,511,540,-63
-256,-400,15716,511,585,-85
-256,-380,15724,511,610,-82
-256,-400,15964,256,571,-84
-256,-364,15696,511,595,-97
-256,-448,15936,256,591,-84
-256,-356,15716,511,576,-66
-256,-356,15736,511,584,-78
-256,-468,15748,511,582,-62
-256,-368,15892,256,579,-90
-256,-356,15728,511,581,-87
-256,-308,15660,511,588,-74
-256,-392,15696,511,591,-72
-256,-432,15976,256,580,-67
-256,-388,15672,511,573,-86
-256,-436,15740,511,579,-81
-256,-372,15652,511,582,-80
-256,-420,15956,256,580,-89
-256,-376,15724,511,570,-71
-256,-376,15720,511,575,-79
-256,-444,15756,511,585,-52
-256,-392,15788,511,574,-69
-256,-320,15676,511,570,-83
-256,-400,16048,256,574,-97
-256,-372,16004,256,578,-93
-256,-436,15760,256,568,-102
-256,-372,16000,256,554,-94
-256,-396,15700,256,570,-107
-256,-392,15992,256,596,-74
-256,-392,15664,511,582,-74
-256,-424,15728,256,566,-94
-256,-340,15988,256,582,-86
-256,-408,15780,511,581,-96
-256,-468,15992,256,598,-87
-256,-444,15740,511,589,-94
-256,-484,15740,511,591,-52
-256,-392,15960,256,575,-75
-256,-380,15708,511,568,-98
-256,-412,15728,511,562,-73
-256,-404,15716,511,590,-87
-256,-412,15672,511,570,-98
-256,-404,15716,511,583,-74
-256,-428,15724,511,580,-81
-256,-388,15656,511,581,-78
-256,-388,15976,256,578,-65
-256,-412,15704,511,563,-93
-256,-408,15680,511,562,-83
-256,-372,15764,511,571,-80
-256,-356,15740,511,598,-110
-256,-428,15992,256,580,-76
-256,-408,15752,511,563,-95
-256,-396,15968,256,579,-61
-256,-424,16032,256,595,-85
-256,-400,15664,511,587,-100
-256,-416,15668,511,593,-82
-256,-416,15760,511,585,-94
-256,-384,15720,511,578,-102
-256,-428,15720,511,583,-85
-256,-368,15776,511,586,-77
-256,-372,15744,511,588,-66
-256,-380,15980,256,581,-60
-256,-396,15760,511,579,-79
-256,-372,15712,511,585,-79
-256,-444,15708,511,592,-81
-256,-368,15704,511,559,-76
-256,-420,16004,256,569,-75
-256,-368,15724,511,568,-68
-256,-428,15736,511,594,-62
-256,-404,15972,256,577,-100
-256,-360,15764,511,575,-93
-256,-436,15704,511,570,-88
-256,-416,15724,511,562,-86
-256,-352,15988,256,576,-71
-256,-372,15920,256,582,-89
-256,-428,15736,511,566,-82
-256,-344,15720,256,582,-93
-256,-388,15708,511,585,-86
-256,-384,15940,256,596,-94
-256,-412,15728,511,589,-104
-256,-384,15984,256,572,-110
-256,-376,15732,511,574,-68
-256,-380,15740,511,584,-78
-256,-404,15940,511,572,-95
-256,-320,15708,256,579,-90
-256,-408,15964,256,564,-87
-256,-404,15732,511,564,-100
-256,-380,15720,511,586,-118
-256,-448,16004,511,562,-81
-256,-396,15712,511,588,-74
-256,-376,15720,511,578,-77
-256,-376,15996,256,589,-73
-256,-368,15752,511,592,-91
-256,-416,15676,511,565,-98
-256,-360,15736,511,588,-83
-256,-372,15720,511,579,-84
-256,-392,15696,511,606,-85
-256,-432,15740,256,595,-104
-256,-408,15984,256,593,-95
-256,-408,15756,511,583,-118
-256,-440,15688,511,580,-87
-256,-364,15980,256,596,-85
-256,-380,15780,511,588,-78
-256,-404,15972,256,599,-48
-256,-396,15972,256,560,-71
-256,-372,15752,511,566,-80
-256,-396,15996,256,578,-94
-256,-404,15704,256,563,-94
-256,-420,16008,256,569,-73
-256,-336,15988,256,549,-95
-256,-420,15672,511,568,-69
-256,-432,15716,511,583,-67
-256,-380,15972,256,593,-83
-256,-380,15928,256,582,-76
-256,-380,15788,511,569,-64
-256,-380,15668,511,579,-104
-256,-372,15996,511,592,-92
-256,-372,15760,511,585,-74
-256,-408,15736,511,580,-60
-256,-448,15980,256,577,-65
-256,-384,15760,256,588,-72
-256,-400,15972,256,592,-94
-256,-360,15688,511,568,-94
-256,-432,15684,511,561,-81
-256,-356,15984,256,569,-89
-256,-412,15732,511,587,-83
-256,-372,15764,511,578,-89
-256,-352,15736,511,584,-88
-256,-372,15724,511,601,-63
-256,-420,16040,511,576,-66
-256,-344,15748,511,588,-91
-256,-424,15784,511,573,-99
-256,-396,15996,256,580,-91
-256,-380,15736,511,572,-79
-256,-420,15752,511,563,-64
-256,-348,15964,256,558,-75
-256,-428,15964,256,560,-73
-256,-392,15780,511,569,-92
-256,-428,15988,256,571,-89
-256,-376,15728,511,565,-77
-256,-388,15720,511,578,-97
-256,-384,15740,511,577,-90
-256,-364,15708,511,572,-89
-256,-408,15968,256,577,-78
-256,-436,15984,256,599,-80
-256,-376,15724,511,583,-101
-256,-384,15744,511,578,-91
-256,-436,15728,511,584,-82
-256,-408,15972,256,584,-81
-256,-340,15688,511,587,-84
-256,-420,15980,256,571,-94
-256,-408,15716,511,570,-74
-256,-372,15988,256,586,-61
-256,-408,15948,256,576,-68
-256,-440,15732,511,578,-97
-256,-456,16012,256,572,-71
-256,-312,15992,256,578,-84
-256,-332,15724,511,586,-79
-256,-384,16016,256,596,-73
-256,-408,15988,256,574,-82
-256,-372,15940,256,597,-77
-256,-448,15976,256,598,-83
-256,-332,15700,511,592,-99
-256,-436,15736,511,593,-100
-256,-372,16016,256,584,-88
-256,-460,15752,511,564,-113
-256,-392,15964,256,589,-63
-256,-392,16004,256,589,-51
-256,-388,15708,511,575,-77
-256,-372,15980,256,565,-76
-256,-400,15684,511,562,-60
-256,-400,16016,256,572,-81
-256,-388,15712,511,565,-59
-256,-380,15724,511,575,-59
-256,-408,15696,511,561,-78
-256,-392,15952,256,576,-69
-256,-408,15716,511,593,-79
-256,-420,15968,511,576,-63
-256,-340,15760,511,580,-62
-256,-404,15740,511,590,-79
-256,-412,15664,511,588,-73
-256,-380,15988,256,579,-64
-256,-420,15952,256,578,-83
-256,-500,15712,256,581,-92
-256,-384,15680,511,593,-110
-256,-412,15740,511,579,-101
-256,-324,15728,511,579,-81
-256,-388,15720,511,582,-72
-256,-372,15752,511,560,-81
-256,-408,16028,256,564,-81
-256,-444,15716,511,557,-83
-256,-424,15960,256,577,-91
-256,-364,15776,511,581,-80
-256,-424,15708,511,580,-78
-256,-376,15984,256,590,-73
-256,-352,15744,511,575,-82
-256,-344,15692,511,558,-87
-256,-412,15720,511,598,-87
-256,-372,15688,511,585,-57
-256,-376,15964,256,564,-63
-256,-336,15708,511,561,-82
-256,-416,15676,511,570,-67
-256,-380,15992,256,569,-58
-256,-400,15740,511,555,-93
-256,-348,16036,256,560,-70
-256,-376,15704,511,571,-79
-256,-356,15912,256,567,-83
-256,-428,15952,256,558,-114
-256,-324,15712,511,565,-100
-256,-416,16020,256,593,-63
-256,-416,15936,256,580,-71
-256,-368,15716,511,575,-87
-256,-372,15996,256,574,-82
-256,-356,15720,511,594,-73
-256,-436,16028,511,577,-95
-256,-436,15780,511,558,-103
-256,-320,15964,256,565,-87
-256,-400,15972,256,556,-90
-256,-372,15736,511,555,-87
-256,-324,15924,256,568,-51
-256,-368,15972,256,570,-90
-256,-384,15652,511,568,-110
-256,-468,15712,511,570,-88
-256,-400,15728,511,598,-101
-256,-404,15972,256,586,-66
-256,-400,15956,256,567,-74
-256,-444,15692,511,577,-60
-256,-472,16016,256,562,-83
-256,-396,15756,511,565,-77
-256,-336,15700,511,549,-80
-256,-360,15740,511,569,-83
-256,-360,15764,511,583,-61
-256,-356,15728,511,583,-88
-256,-412,15720,511,583,-97
-256,-352,15704,511,578,-67
-256,-452,15764,511,558,-91
-256,-424,15728,511,569,-83
-256,-408,15668,511,567,-77
-256,-416,15700,511,573,-76
-256,-380,15696,511,583,-78
-256,-424,15740,511,580,-105
-256,-428,15728,511,574,-96
-256,-448,15676,511,604,-68
-256,-320,15972,256,586,-77
-256,-380,15936,256,555,-85
-256,-404,15720,511,590,-77
-256,-436,15704,511,582,-86
-256,-396,15968,256,578,-72
-256,-400,16024,256,582,-66
-256,-380,15744,256,590,-80
-256,-332,15712,511,596,-77
-256,-356,15668,511,581,-75
-256,-428,16004,256,571,-66
