Ax,Ay,Az
256,-699,15864
511,-700,15866
511,-699,15865
511,-698,15864
511,-697,15866
511,-697,15865
511,-700,15863
511,-704,15862
511,-703,15861
511,-700,15862
511,-699,15861
511,-702,15860
511,-705,15860
511,-705,15860
511,-705,15862
511,-705,15864
511,-709,15864
511,-711,15863
511,-709,15864
511,-710,15861
511,-706,15860
511,-705,15861
511,-706,15858
511,-707,15857
511,-708,15856
511,-709,15853
511,-710,15852
511,-711,15853
511,-712,15856
511,-710,15856
511,-707,15856
511,-711,15854
511,-713,15856
511,-711,15855
511,-712,15855
511,-711,15858
511,-712,15858
511,-711,15860
511,-712,15862
511,-710,15860
511,-707,15860
511,-701,15860
511,-702,15862
511,-701,15863
511,-702,16120
256,-698,15865
511,-698,15864
511,-698,15864
511,-698,15864
511,-701,15867
511,-698,15870
511,-699,15870
511,-704,15870
511,-702,15868
511,-702,15867
511,-699,15864
511,-699,15863
511,-701,15864
511,-703,15864
511,-705,16120
256,-704,16119
256,-702,15862
511,-702,15861
511,-705,15859
511,-706,15859
511,-705,15855
511,-707,15854
511,-711,15857
511,-712,15859
511,-712,15859
511,-710,15861
511,-708,15863
511,-707,15866
511,-708,15865
511,-710,15867
511,-709,15865
511,-706,15867
511,-702,15867
511,-703,15867
511,-702,15866
511,-704,15865
511,-702,15864
511,-701,15864
511,-700,15865
511,-699,15867
511,-699,15868
511,-702,15865
511,-701,15867
511,-702,15868
511,-697,15866
511,-697,15864
511,-695,15862
511,-695,15865
511,-694,15867
511,-692,15866
511,-693,15864
511,-694,15862
511,-693,15862
511,-693,15862
511,-689,15863
511,-687,15862
511,-687,15859
511,-689,15856
511,-689,15857
511,-692,15859
511,-693,15856
511,-688,15855
511,-688,15856
511,-689,15858
511,-687,15859
511,-684,15859
511,-685,15857
511,-688,15858
511,-691,15858
511,-691,15857
511,-692,15859
511,-690,15860
511,-693,15861
511,-693,15861
511,-694,15862
511,-694,15862
511,-695,15861
511,-697,15863
511,-698,15862
511,-700,15860
511,-701,15863
511,-702,15865
511,-702,15865
511,-701,15864
511,-698,15866
511,-700,15866
511,-702,15864
511,-701,15862
511,-698,15860
511,-700,15858
511,-698,15855
511,-697,15854
511,-700,15854
511,-701,15856
511,-700,15856
511,-699,15857
511,-701,15856
511,-702,15858
511,-701,15859
511,-702,15860
511,-703,15861
511,-703,15862
511,-703,15862
511,-703,15861
511,-702,15859
511,-703,15858
511,-701,15858
511,-703,15855
511,-703,15853
511,-702,15851
511,-703,15849
511,-704,15848
511,-703,15850
511,-703,15852
511,-702,15851
511,-701,15855
511,-698,15856
511,-698,15854
511,-699,15855
511,-702,15856
511,-702,15855
511,-703,15856
511,-702,15855
511,-700,15856
511,-697,15857
511,-697,15859
511,-698,15858
511,-701,15858
511,-705,15855
511,-708,15852
511,-710,15847
511,-710,15845
511,-710,15848
511,-711,15848
511,-712,15845
511,-714,15842
511,-712,15843
511,-712,15845
511,-712,15844
511,-709,15846
511,-707,15845
511,-710,15844
511,-707,15844
511,-707,15845
511,-705,15844
511,-706,15842
511,-709,15843
511,-707,15842
511,-707,15845
511,-705,15848
511,-703,15849
511,-701,15854
511,-697,15854
511,-696,15854
511,-697,15857
511,-699,15855
511,-700,15854
511,-699,15850
511,-698,15851
511,-696,15852
511,-698,15850
511,-700,15848
511,-697,15849
511,-700,15846
511,-703,15845
511,-701,15846
511,-703,15848
511,-700,15850
511,-698,15853
511,-696,15850
511,-693,15851
511,-693,15853
511,-692,15856
511,-694,15858
511,-693,15858
511,-694,15859
511,-697,15857
511,-694,15856
511,-693,15855
511,-696,15856
511,-696,15858
511,-695,15858
511,-695,15857
511,-695,15856
511,-695,15855
511,-693,15856
511,-691,15857
511,-690,15858
511,-688,15859
511,-686,15858
511,-689,15857
511,-687,15858
511,-687,15855
511,-687,15854
511,-689,15858
511,-691,15857
511,-693,15859
511,-695,15858
511,-695,15855
511,-693,15858
511,-693,15858
511,-693,15861
511,-693,15864
511,-694,15866
511,-697,15864
511,-698,15865
511,-701,15866
511,-703,15866
511,-705,15866
511,-705,15865
511,-701,15864
511,-701,15865
511,-698,15863
511,-698,15866
511,-701,15871
511,-698,15871
511,-444,15616
511,-445,15616
511,-448,15616
511,-444,15616
511,-443,15616
511,-701,15869
511,-701,15866
511,-700,15866
511,-703,15867
511,-706,15865
511,-708,15864
511,-707,15862
511,-706,15860
511,-705,15863
511,-704,15864
511,-703,15864
511,-700,15860
511,-700,15860
511,-700,15859
511,-703,15856
511,-704,15855
511,-704,15854
511,-706,15853
511,-707,15855
511,-708,15856
511,-708,15855
511,-712,15855
511,-713,15853
511,-714,15851
511,-712,15856
511,-711,15855
511,-711,15856
511,-711,15856
511,-710,15855
511,-709,15855
511,-710,15857
511,-707,15854
511,-706,15856
511,-707,15858
511,-706,15860
511,-708,15862
511,-707,15863
511,-706,15861
511,-706,15862
511,-705,15861
511,-703,15862
511,-704,15861
511,-703,15860
511,-701,15861
511,-700,15858
511,-700,15858
511,-697,15858
511,-698,15858
511,-696,15859
511,-698,15860
511,-701,15860
511,-704,15860
511,-706,15859
511,-707,15856
511,-707,15853
511,-705,15855
511,-706,15855
511,-705,15857
511,-707,15856
511,-706,15857
511,-709,15861
511,-710,15860
511,-708,15857
511,-708,15857
511,-709,15860
511,-709,15860
511,-704,15863
511,-702,15864
511,-703,15863
511,-704,15864
511,-704,15865
511,-702,15868
511,-703,15868
511,-702,15866
511,-700,15866
511,-701,15864
511,-698,15861
511,-697,15860
511,-696,15863
511,-696,15864
511,-696,15860
511,-696,15860
511,-693,15861
511,-690,15862
511,-693,15860
511,-696,15859
511,-699,15858
511,-701,15855
511,-703,15856
511,-701,15853
511,-701,15854
511,-701,15858
511,-700,15858
511,-702,15862
511,-701,15860
511,-704,15860
511,-707,15857
511,-707,15857
511,-707,15856
511,-710,15853
511,-710,15854
511,-714,15855
511,-714,15854
511,-711,15853
511,-711,15853
511,-712,15851
511,-723,15852
511,-728,15842
511,-728,15837
511,-731,15838
511,-725,15846
511,-715,16109
256,-710,15855
511,-717,16111
256,-709,15852
511,-704,15850
511,-706,15850
511,-697,15853
511,-695,15855
511,-694,15857
511,-694,15857
511,-694,16114
256,-699,15858
511,-696,15856
511,-697,15855
511,-701,15857
511,-701,15858
511,-702,15858
511,-700,15858
511,-697,15861
511,-696,15863
511,-697,15865
511,-697,15865
511,-697,15866
511,-694,15865
511,-697,15866
511,-698,15863
511,-701,15865
511,-703,15865
511,-704,15863
511,-706,15862
511,-703,15863
511,-705,15863
511,-704,15864
511,-707,15864
511,-709,15866
511,-708,15864
511,-707,15866
511,-709,15867
511,-704,15870
511,-702,15870
511,-699,15867
511,-698,15868
511,-699,15867
511,-698,15867
511,-696,15866
511,-697,15864
511,-702,15866
511,-702,15869
511,-702,15871
511,-706,15870
511,-706,15871
511,-701,15869
511,-699,15871
511,-445,15616
511,-698,15871
511,-699,15871
511,-696,15871
511,-697,15869
511,-695,15869
511,-692,15867
511,-697,15869
511,-695,15868
511,-696,15868
511,-700,15866
511,-699,15870
511,-442,15616
511,-701,15870
511,-702,15869
511,-700,15870
511,-700,15869
511,-699,15867
511,-702,15864
511,-698,15864
511,-697,15865
511,-696,15864
511,-696,15865
511,-697,15863
511,-695,15863
511,-696,15863
511,-693,15863
511,-694,16120
256,-694,15867
511,-693,15864
511,-692,15864
511,-693,15861
511,-698,15861
511,-698,15860
511,-697,15859
511,-697,15858
511,-694,15859
511,-691,15857
511,-692,15860
511,-693,15857
511,-696,15857
511,-698,15855
511,-699,15854
511,-697,15854
511,-696,15858
511,-691,16117
256,-692,16118
256,-694,16121
256,-696,15862
511,-702,15860
511,-703,15860
511,-704,15857
511,-705,15859
511,-707,15859
511,-709,15857
511,-703,15857
511,-707,15857
511,-708,15860
511,-707,15861
511,-706,15862
511,-706,15862
511,-710,15863
511,-709,15866
511,-710,15868
511,-712,15867
511,-711,15870
511,-712,15870
511,-711,15870
511,-710,15869
511,-713,15871
511,-457,15617
511,-711,15871
511,-715,15870
511,-716,15864
511,-722,15863
511,-723,15859
511,-718,15861
511,-720,15859
511,-719,15858
511,-720,15861
511,-721,15860
511,-723,15858
511,-719,15858
511,-719,15862
511,-723,15864
511,-722,15865
511,-717,15867
511,-718,15870
511,-716,15871
511,-461,15616
511,-715,15869
511,-715,15866
511,-714,15866
511,-717,16120
256,-719,16120
256,-720,15861
511,-721,15863
511,-724,15865
511,-725,16124
256,-728,16125
256,-727,16126
256,-725,16124
256,-727,16125
256,-725,16125
256,-726,15866
511,-725,15867
511,-728,15867
511,-725,15865
511,-729,15865
511,-730,15861
511,-732,15858
511,-732,15858
511,-734,15857
511,-734,15855
511,-740,15856
511,-740,15853
511,-745,15852
511,-744,15851
511,-738,15852
511,-725,15854
511,-711,15860
511,-709,15860
511,-708,15860
511,-708,15859
511,-710,15859
511,-704,15854
511,-718,15854
511,-738,16102
256,-724,16105
256,-698,15853
511,-698,15854
511,-704,15850
511,-704,15848
511,-709,15845
511,-718,15844
511,-719,16103
256,-722,16104
256,-723,16107
256,-731,16106
256,-738,16109
256,-743,16110
256,-750,16114
256,-754,16113
256,-758,16113
256,-756,16111
256,-746,16114
256,-731,16117
256,-717,16115
256,-706,16114
256,-694,15861
511,-691,15860
511,-694,15857
511,-703,16111
256,-710,16109
256,-713,16106
256,-716,16105
256,-714,16105
256,-711,16107
256,-709,16111
256,-708,15855
511,-706,15853
511,-705,15856
511,-700,16110
256,-700,15852
511,-697,15854
511,-691,15856
511,-689,15854
511,-689,15850
511,-692,16106
256,-698,16109
256,-707,16108
256,-714,16107
256,-720,16106
256,-725,16106
256,-732,16105
256,-732,16103
256,-726,16104
256,-713,16104
256,-704,16100
256,-696,16101
256,-684,16102
256,-676,16104
256,-669,16106
256,-661,16108
256,-655,16107
256,-651,16109
256,-645,16108
256,-640,16108
256,-638,16105
256,-634,16105
256,-628,15850
511,-621,15850
511,-613,15851
511,-604,15852
511,-594,15854
511,-587,15858
511,-580,15860
511,-579,15858
511,-579,15856
511,-581,15857
511,-583,16113
256,-585,16112
256,-584,16113
256,-580,16110
256,-575,16111
256,-570,16113
256,-564,16115
256,-560,16115
256,-553,16114
256,-551,16115
256,-549,16113
256,-549,16114
256,-552,16117
256,-560,16114
256,-567,16109
256,-581,16102
511,-593,16095
511,-592,16093
511,-576,16098
511,-561,16104
511,-552,16106
511,-543,16104
511,-537,16104
511,-528,16106
511,-523,16109
767,-768,16110
767,-761,16110
767,-759,16106
767,-754,16108
767,-753,16109
767,-747,16366
512,-737,16114
767,-722,16112
767,-705,16116
767,-685,16123
767,-666,16126
512,-390,15873
512,-368,15879
512,-344,15885
512,-324,15633
767,-309,15635
767,-294,15636
767,-287,15636
767,-282,15636
767,-279,15892
512,-277,15894
512,-279,15897
512,-277,15895
512,-277,15894
512,-274,15896
512,-272,15898
512,-264,15901
768,-508,15901
768,-503,15901
768,-493,15902
768,-478,15905
768,-456,15909
768,-436,15912
768,-421,15919
768,-401,15925
768,-382,15929
768,-358,15935
768,-338,15680
1023,-310,15682
1023,-292,15682
1023,-271,15683
768,-257,15684
1024,-500,15684
1024,-489,15686
1024,-481,15684
1024,-471,15680
1024,-463,15679
1024,-448,15680
1024,-445,15677
1024,-448,15676
1024,-455,15675
1024,-461,15675
1279,-470,15677
1279,-479,15932
1024,-495,15932
1024,-503,15933
1279,-504,15934
1023,-259,16186
768,-269,16184
768,-269,16184
768,-260,16184
1024,-504,16186
1024,-491,16184
1024,-470,16189
1024,-449,16193
1024,-433,15934
1279,-418,15935
1279,-398,15935
1279,-385,15939
1279,-366,15941
1279,-361,15942
1279,-352,15946
1279,-344,15949
1279,-338,15945
1279,-332,15945
1279,-321,16202
1024,-321,16200
1024,-322,16197
1024,-316,16197
1024,-309,16196
1279,-300,16196
1279,-302,16187
1279,-301,16182
1279,-279,16180
1279,-263,16182
1535,-499,16182
1535,-456,16191
1280,-430,16191
1280,-401,16195
1280,-369,15945
1535,-352,15935
1535,-348,15929
1535,-333,15923
1280,-317,15919
1280,-298,15915
1280,-280,15914
1280,-263,15912
1536,-501,15911
1536,-497,15905
1536,-482,15653
1791,-438,15668
1791,-391,15677
1791,-384,15934
1536,-380,15933
1536,-370,15930
1536,-381,15918
1791,-381,15915
1791,-375,16167
1536,-369,16171
1536,-353,16169
1536,-350,16164
1536,-337,16164
1791,-311,16165
1791,-312,16413
1536,-315,16413
1536,-302,16412
1536,-272,16414
1536,-272,16403
1536,-260,16402
1792,-497,16402
1792,-477,16394
1792,-443,16400
1792,-380,16412
1792,-342,16418
1792,-312,16155
2047,-289,16157
2303,-507,16159
2048,-473,16154
2048,-432,15897
2303,-396,15906
2303,-339,15914
2048,-289,15929
2304,-501,15671
2559,-461,15675
2559,-412,15679
2559,-367,15684
2304,-327,15695
2304,-291,15701
2304,-257,15699
2560,-468,15449
2815,-413,15457
2815,-371,15465
2815,-332,15461
2815,-282,15469
3071,-512,15462
3071,-455,15473
3071,-415,15484
3071,-371,15483
3071,-353,15477
3071,-314,15477
2816,-295,15471
2816,-283,15463
3072,-503,15463
3072,-464,15214
3327,-411,15225
3327,-379,15225
3327,-351,15224
3327,-331,15215
3072,-302,15211
3072,-280,14951
3583,-478,14955
3328,-401,14717
3583,-345,14724
3583,-304,14726
3583,-264,14731
3839,-465,14740
3584,-421,14487
3839,-390,14485
3839,-366,14483
3839,-337,14482
3839,-300,14481
3584,-266,14484
3840,-505,14488
4095,-505,14493
4095,-511,14748
3840,-510,14747
3840,-490,14744
4095,-482,14734
4095,-469,14727
4095,-459,14979
3840,-446,14978
3840,-436,14982
3840,-430,14981
4095,-426,14979
4095,-402,14982
4095,-372,14988
4095,-349,14989
4095,-341,14984
4095,-337,14975
4095,-316,14976
4095,-285,14983
3840,-270,14990
4095,-267,14987
4095,-260,14985
4351,-491,14982
4351,-471,14978
4351,-468,14975
4351,-459,14978
4351,-451,15234
4096,-447,15225
4096,-436,15223
4096,-424,15228
4351,-429,15216
4351,-421,15213
4351,-401,15220
4351,-385,15217
4351,-367,15221
4351,-332,15231
4351,-299,15240
4351,-291,15233
4351,-269,15232
4352,-494,15239
4352,-470,15240
4352,-462,15238
4352,-447,15244
4352,-435,15247
4607,-439,15238
4607,-430,15237
4607,-417,15231
4607,-396,15230
4607,-389,15228
4607,-386,15211
4607,-402,15195
4607,-372,15202
4607,-318,15225
4607,-293,15237
4607,-292,15233
4607,-288,15230
4607,-287,15221
4607,-284,15209
4863,-509,15210
4863,-474,15216
4608,-422,14967
4863,-367,14981
4608,-303,14741
5119,-493,14761
4864,-417,14517
5119,-367,14518
4864,-326,14272
5119,-295,14280
5119,-288,14280
5119,-290,14530
4864,-303,14521
4864,-319,14507
5119,-334,14499
5119,-351,14751
4864,-367,14742
4864,-371,14740
4864,-337,14748
4864,-296,14764
4864,-259,14770
5120,-501,14767
5120,-506,14758
5119,-270,14742
5119,-299,14987
4864,-299,14982
4864,-279,14985
5120,-510,14989
5120,-495,14992
5375,-500,14983
5119,-259,14966
5119,-268,14955
5119,-280,14940
5119,-317,15169
4864,-367,15136
4864,-392,15127
4864,-354,15162
5119,-311,15439
4864,-296,15448
4864,-287,15441
4864,-277,15175
5119,-257,15175
5375,-489,15181
5375,-459,15187
5375,-438,15196
5375,-404,15208
5375,-372,15216
5375,-349,15220
5120,-321,15221
5120,-290,14975
5375,-259,14986
5631,-486,14999
5631,-457,15010
5376,-432,15017
5376,-401,15022
5376,-365,14775
5631,-323,14793
5631,-281,14804
5632,-500,14814
5632,-469,14561
5887,-440,14565
5887,-417,14575
5887,-396,14580
5887,-381,14579
5887,-363,14576
5887,-349,14574
5887,-334,14574
5887,-321,14570
5887,-316,14564
5887,-311,14555
5887,-306,14547
5887,-305,14540
5887,-299,14535
5887,-291,14781
5632,-281,14782
5632,-271,14778
5632,-264,14772
5888,-509,14770
5888,-500,14767
5888,-498,14756
5888,-493,14748
6143,-485,14748
6143,-476,14748
6143,-460,14747
6143,-450,14746
6143,-430,14748
6143,-411,14749
6143,-396,14748
6143,-389,14738
6143,-384,14730
6143,-374,14736
6143,-346,14742
6143,-323,14754
6143,-290,14758
6143,-281,14758
6143,-266,14760
6399,-505,14763
6144,-482,14760
6144,-462,14762
6144,-443,14769
6144,-417,14782
6144,-396,14791
6144,-381,14789
6144,-373,14782
6144,-365,14772
6144,-358,14761
6399,-355,14754
6399,-342,14749
6399,-332,14744
6399,-319,14742
6399,-298,14746
6399,-282,14742
6399,-266,14740
6655,-507,14735
6655,-485,14730
6655,-464,14726
6655,-438,14727
6400,-407,14731
6400,-372,14482
6655,-337,14493
6655,-302,14503
6400,-268,14518
6656,-490,14272
6911,-452,14284
6911,-421,14291
6911,-397,14296
6656,-369,14300
6656,-344,14301
6656,-321,14302
6656,-298,14301
6656,-267,14307
6912,-498,14051
7167,-476,14051
7167,-449,14053
7167,-415,14058
7167,-380,14053
6912,-357,14048
6912,-331,14051
6912,-301,13808
7167,-10,13569
7423,-233,13583
7168,-205,13594
7168,-173,13601
7168,-147,13355
7423,-134,13358
7423,-116,13348
7423,-79,13349
7423,-61,13339
7423,-58,13323
7423,-299,13566
7423,-269,13564
7679,-507,13563
7679,-480,13564
7424,-461,13559
7424,-439,13560
7424,-415,13567
7424,-138,13324
7679,-132,13333
7679,-136,13315
7679,-391,13802
7424,-386,13785
7424,-377,13775
7679,-372,14022
7424,-365,14012
7424,-358,14002
7424,-352,14001
7679,-344,14000
7679,-322,14261
7424,-297,14261
7424,-268,14254
7680,-482,14253
7935,-441,14256
7935,-412,14263
7935,-378,14268
7935,-337,14264
7935,-271,14267
8191,-471,14282
8191,-420,14302
7936,-389,14318
7936,-363,14334
7936,-91,14090
7936,-86,13842
8191,-87,13849
7936,-87,13861
7936,-81,13869
7936,-81,13629
8191,-82,13650
8191,-103,13633
8191,-108,13627
8191,-94,13627
8191,-71,13634
8191,-23,13641
8447,-207,13646
8192,-120,13656
8192,-46,13410
8703,-243,13426
8448,-198,13183
8703,-141,13193
8703,-89,13201
8959,-255,13205
8959,-217,13207
8704,-201,13213
8704,-198,13214
8704,-197,13213
8704,-216,12946
8959,-230,12921
8959,-233,12900
8959,-219,12878
8959,-202,12857
8959,-174,12849
8959,-161,12846
8959,-156,12841
8704,-154,12838
8704,-150,12826
8704,-159,12809
8704,-439,13055
8704,-464,13053
8704,-492,13043
8448,-269,13022
8703,-288,13003
8703,-322,13243
8448,-328,13225
8448,-301,13218
8704,-511,13229
8704,-465,13238
8704,-429,12990
8959,-392,13013
8959,-367,13045
8704,-111,12809
8704,-115,12819
8704,-89,12831
8704,-58,12585
8959,-19,12592
9215,-223,12601
8960,-174,12354
9215,-121,12108
9215,-55,12120
9216,-236,11875
9471,-164,11633
9471,-101,11654
9471,-28,11683
9472,-225,11708
9472,-188,11724
9472,-137,11731
9472,-91,11735
9472,-30,11745
9728,-227,11742
9728,-179,11733
9728,-133,11726
9728,-95,11721
9728,-63,11724
9728,-33,11737
9983,-31,11735
9983,-59,11717
9983,-77,11698
9983,-112,11688
9983,-146,11935
9728,-185,11924
9728,-233,11910
9472,-48,11898
9727,-92,12134
9472,-115,12124
9727,-108,12119
9727,-91,12125
9727,-53,12395
9472,-30,12408
9472,-6,12407
9728,-246,12130
9983,-233,12104
9983,-228,12097
9728,-253,12079
9472,-21,11840
9727,-31,12120
9472,-10,12138
9728,-239,12148
9983,-191,12153
9983,-176,12419
9728,-187,12419
9728,-196,12401
9983,-206,12382
9983,-225,12362
9983,-246,12331
9727,-22,12551
9472,-304,12772
9472,-341,12750
9472,-365,12730
9472,-410,12701
9472,-446,12677
9727,-495,12649
9471,-293,12621
9471,-336,12591
9471,-384,12563
9471,-685,12799
9471,-738,12785
9215,-537,12791
9215,-594,13054
8960,-384,12800
8960,-671,13055
8960,-705,13053
9215,-731,13048
9215,-744,13047
9215,-746,13050
9215,-479,13056
8960,-464,13067
8960,-431,13081
8960,-386,13097
8960,-323,12857
9215,-259,12880
9471,-447,12903
9216,-384,12922
9216,-327,12680
9471,-274,12689
9727,-488,12691
9472,-453,12434
9727,-422,12429
9727,-398,12422
9472,-376,12161
9727,-354,12151
9727,-345,12139
9472,-336,12129
9472,-321,12123
9472,-306,12124
9472,-294,12130
9472,-277,12134
9472,-264,12140
9983,-502,12145
9983,-489,12155
9983,-478,12418
9728,-453,12435
9728,-440,12441
9983,-427,12446
9983,-418,12447
9983,-435,12408
9728,-511,12085
9727,-300,12033
9472,-553,12280
9728,-501,12062
9983,-426,12373
9728,-363,12415
9728,-370,12394
9728,-409,12095
9728,-414,11802
9983,-382,11819
9983,-322,11842
9983,-281,11858
9983,-267,11867
9983,-259,11868
9983,-263,11861
9728,-278,11848
9983,-283,11834
9983,-292,11828
9983,-310,11847
9983,-270,12112
9984,-510,12140
9984,-478,12162
10239,-444,12185
10239,-422,12201
10239,-393,12211
10239,-371,12225
10239,-353,12232
10239,-335,12241
10239,-310,12249
10239,-281,12266
10495,-502,12287
10240,-203,12054
10240,-153,12073
10240,-107,11834
10495,-71,11843
10495,-36,11852
10240,-5,11854
10496,-240,11601
10751,-221,11604
10751,-210,11608
10495,-277,11769
10239,-335,11904
10239,-354,12395
9984,-455,12629
9984,-485,12897
9728,-286,12893
9983,-313,13129
9728,-337,13108
9728,-333,13095
9728,-317,12836
9983,-296,12839
9984,-506,12582
9984,-466,12323
9984,-429,12055
10239,-406,11786
10239,-629,11775
10239,-591,11770
9984,-293,11273
10495,-480,11303
10240,-400,11076
10751,-490,11137
11007,-80,11416
11263,95,11674
11008,98,11399
11263,-233,11501
10752,-120,11148
11007,-180,11069
10752,-81,11100
11008,-251,11217
11008,87,11014
11008,-189,11240
11008,-242,10918
11007,-4,10892
11263,-244,10907
11263,-233,10922
11263,-229,10916
11263,-235,10897
11263,-239,10881
11263,-237,10881
11263,-243,11141
11008,-254,11136
10752,-15,11115
10752,-26,11092
10752,-15,10833
11263,-242,10846
11263,-205,10864
11263,-171,10873
11008,-150,10878
11008,-132,10880
11008,-114,10883
11008,-115,10618
11263,-122,10605
11263,-122,10857
11008,-111,10866
11008,-106,10870
11008,-120,10861
11008,-142,10848
11008,-147,10843
11263,-167,10847
11263,-190,11089
11008,-215,11064
11008,-228,11060
11008,-229,11063
11263,-243,11059
11007,-19,11299
10752,-44,11284
10752,-53,11276
11007,-42,11528
10752,-340,11766
10752,-354,11758
11007,-358,11756
11007,-374,12004
10752,-383,11997
10752,-388,11995
11007,-396,11993
11007,-395,11993
11007,-396,11995
11007,-395,12247
10752,-391,11987
11007,-378,11988
11007,-370,11992
11007,-361,12003
11007,-336,12015
11007,-314,12020
10752,-306,12024
10752,-296,12022
10752,-285,12022
10752,-272,12024
11008,-250,11529
11263,-492,11772
11263,-492,11764
11263,-479,11764
11263,-466,11766
11263,-448,11773
11263,-439,11770
11263,-432,11766
11263,-426,11763
11263,-420,11760
11263,-429,11752
11263,-426,11747
11263,-412,11749
11263,-403,11750
11263,-397,11743
11263,-382,11744
11263,-363,11744
11263,-354,11743
11263,-335,11741
11263,-310,11748
11008,-271,11773
11264,-238,11269
11519,-217,11267
11264,-176,11012
11519,-135,11010
11519,-176,11266
11264,-483,11763
11263,-295,11973
11264,-495,11701
11263,-319,11646
11519,-501,11614
11008,-258,11593
11264,-511,11589
11519,-462,11859
11264,-450,11833
11264,-424,11789
11264,-664,11722
11519,-605,11662
11264,-526,11347
11520,-659,11037
11520,-801,10733
12031,-936,10436
12031,-814,10140
12032,-954,9870
12032,-810,9643
12288,-953,9416
12288,-825,9210
12544,-732,8757
12799,-627,8828
12544,-523,8644
13055,-443,8468
12800,-400,8533
12800,-349,8588
12800,-314,8622
12800,-291,8658
12800,-276,8409
13311,-506,8403
13311,-495,8389
13311,-479,8615
13056,-472,8600
13056,-486,8597
13056,-495,8601
12288,634,8619
12288,760,8628
12544,290,8550
12288,756,8497
12799,522,8705
12544,312,8882
12544,301,8613
12799,299,8539
12544,348,8292
12799,414,8308
12799,449,8326
12799,467,8325
12799,499,8311
12800,277,8025
13055,311,7988
13055,339,7960
13055,374,7937
12800,149,8177
12800,162,8160
12800,178,8151
12800,192,8136
12800,199,8120
13055,202,8102
13055,210,8089
13055,211,8327
12800,209,8311
12800,208,8296
13055,207,8281
13055,210,8524
12800,217,8514
12800,221,8506
12800,230,8498
12800,242,8485
12800,251,8477
13056,4,8472
13056,13,8463
13056,24,8459
13056,33,8456
13056,41,8451
13056,53,8449
13056,-191,8702
13056,-179,8697
13056,-174,8693
13056,-165,8692
13056,-158,8691
13056,-155,8438
13311,-151,8440
13311,-145,8435
13311,-140,8690
13056,-136,8689
13056,-135,8685
13056,-134,8679
13056,-126,8676
13056,-119,8416
13311,-109,8414
13311,-101,8411
13311,-92,8406
13311,-81,8400
13311,-78,8391
13311,-73,8384
13311,-69,8374
13311,-73,8614
13056,-78,8607
13056,-82,8605
13311,-88,8603
13311,-99,8599
13311,-106,8855
13056,-104,8853
13056,-105,8849
13056,-99,8844
13056,-85,8840
13056,-77,8847
13056,-74,8852
13056,-73,8844
13056,-64,8837
13056,-50,8831
13056,-47,8824
13056,-39,8572
13311,-29,8580
13311,-21,8583
13311,-14,8589
13311,-4,8592
13312,-247,8592
13312,-241,8598
13312,-235,8605
13312,-229,8612
13312,-210,8613
13312,-205,8604
13312,-208,8591
13567,-219,8583
13567,-237,8577
13567,-249,8836
13056,-1,8849
13056,-7,8853
13056,-10,8853
13056,-4,8596
13567,-247,8597
13567,-238,8593
13567,-222,8592
13312,-207,8600
13312,-196,8618
13312,-197,8626
13312,-194,8624
13312,-183,8618
13312,-166,8353
13567,-147,8349
13567,-127,8349
13312,-103,8356
13312,-86,8106
13567,-68,8111
13567,-57,8113
13567,-39,8115
13312,-27,8115
13312,-12,8127
13312,-2,8130
13568,-249,7877
13823,-238,7865
13823,-221,7854
13823,-204,7845
13823,-194,7841
13823,-180,7844
13823,-177,7849
13823,-172,7852
13823,-168,8109
13568,-144,8102
13568,-142,8103
13568,-151,8109
13568,-165,8103
13568,-166,8107
13568,-175,8110
13568,-156,8115
13568,-147,7851
13823,-126,7852
13823,-103,7848
13823,-78,7838
13568,-45,7841
13568,-42,7829
13568,-41,7578
13823,-13,7585
14079,-251,7584
14079,-234,7597
14079,-207,7610
13824,-193,7626
13824,-173,7394
14079,131,7462
13824,179,7793
13824,234,7841
14079,240,7794
14079,218,7750
13824,-147,7671
14079,-148,7555
13824,-154,7562
13824,-109,7582
14079,-104,7591
14079,-90,7593
14080,-233,7318
14079,-6,7078
14335,-235,7134
13824,-23,7094
13824,-10,7140
13824,-13,6873
14335,-219,6862
14080,-212,6613
14079,-64,6617
14079,-105,6879
13824,-87,6902
13824,-77,6899
13824,-70,6883
13824,-77,6862
13824,-104,6853
14079,-130,7107
13824,-160,7110
13824,-176,7107
14079,-171,7364
13824,-153,7361
13824,-137,7357
13824,-132,7355
13824,-118,7359
13824,-114,7370
14079,-109,7374
14079,-101,7609
13824,-75,7328
14079,-35,7314
14335,-224,7313
14080,-150,7072
14335,-69,7068
14080,-68,6814
14335,-120,6797
14080,-162,6786
14335,-182,6786
14335,-178,7049
14080,-176,6801
14335,-152,6810
14335,-123,6821
14335,-98,6827
14080,-53,6832
14080,-17,6834
14080,-32,6834
14080,-72,6825
14080,-67,6828
14335,-69,6837
14335,-47,6861
14335,-32,6874
14080,-4,6895
14336,-256,6911
14336,12,6681
14591,38,6681
14336,58,6666
14336,-185,6651
14591,-203,6636
14336,-225,6633
14336,-247,6638
14336,-249,6638
14336,-211,6397
14591,40,6150
14591,40,6165
14336,50,6170
14336,104,5928
14591,136,5938
14591,140,5942
14336,158,5947
14336,163,5952
14336,150,5947
14336,112,5938
14336,93,5939
14591,69,5935
14591,81,5941
14591,77,6197
14336,93,6201
14336,113,6205
14336,136,6206
14336,152,5954
14591,200,5953
14591,215,5946
14336,200,5954
14336,158,5945
14336,160,5938
14336,152,5939
14336,152,5938
14336,156,5944
14336,151,5946
14336,122,5935
14591,108,5922
14591,82,5893
14591,-186,6380
14336,-195,6361
14336,-204,6349
14591,-212,6344
14591,-216,6599
14336,-220,6598
14336,-225,6594
14336,-232,6590
14591,-236,6583
14591,-245,6576
14591,-255,6822
14080,-9,6814
14080,-17,6810
14335,-21,6807
14335,-21,6806
14335,-19,6809
14335,-12,6809
14335,-4,6815
14591,-248,6821
14591,-239,6825
14336,-228,6833
14336,-221,6582
14591,-214,6586
14591,-208,6583
14591,-205,6584
14591,-198,6590
14591,-191,6596
14591,-193,6603
14591,-186,6607
14336,-175,6612
14336,-170,6615
14336,-167,6364
14591,-163,6369
14591,-159,6628
14336,-156,6373
14591,-149,6373
14591,-146,6374
14591,-144,6376
14591,-148,6373
14591,-152,6372
14591,-151,6369
14591,-153,6369
14591,-159,6622
14336,-157,6621
14336,-156,6615
14336,-159,6612
14336,-158,6611
14336,-157,6611
14336,-156,6610
14336,-156,6606
14336,-158,6608
14336,-159,6609
14336,-165,6610
14336,-174,6610
14336,-180,6608
14336,-185,6612
14336,-189,6610
14591,-191,6609
14591,-190,6607
14591,-184,6609
14336,-180,6612
14336,-172,6610
14336,-167,6615
14336,-160,6621
14336,-159,6620
14336,-160,6620
14336,-161,6618
14336,-164,6617
14336,-169,6615
14336,-174,6612
14336,-173,6614
14336,-173,6616
14336,-182,6617
14336,-185,6615
14336,-188,6614
14336,-193,6611
14591,-197,6613
14591,-197,6613
14591,-194,6613
14591,-194,6614
14591,-191,6617
14336,-183,6623
14336,-178,6625
14336,-171,6629
14336,-164,6634
14336,-156,6382
14591,-148,6386
14591,-142,6388
14591,-135,6383
14591,-135,6380
14591,-137,6376
14591,-141,6378
14591,-143,6375
14591,-145,6375
14591,-150,6373
14591,-154,6373
14591,-160,6371
14591,-153,6376
14591,-153,6377
14591,-152,6384
14591,-144,6392
14591,-137,6396
14591,125,6149
14591,107,6146
14591,109,6148
14591,120,6152
14591,122,6157
14591,124,6169
14591,138,6180
14591,152,6186
14336,152,6191
14336,156,6195
14336,147,6192
14336,173,5936
14591,165,5931
14591,170,5910
14591,-121,6095
14591,-210,6008
14336,-217,5997
14336,-204,6038
14591,-178,6078
14591,-197,6342
14336,-241,6314
14335,-30,6295
14335,-41,6549
14080,-50,6553
14080,-70,6552
14335,-77,6554
14335,-85,6549
14335,-102,6542
14335,-118,6800
14080,-117,6810
14080,-130,6809
14080,-144,6803
14080,-148,6809
14080,-140,6818
14080,-139,6820
14080,-132,6563
14335,-134,6553
14335,-118,6560
14080,-81,6333
14335,-66,6354
14335,-48,6361
14080,-49,6354
14080,-66,6083
14335,-56,6090
14335,-57,6105
14335,-62,6370
14080,-105,6357
14080,-151,6338
14335,-188,6584
14080,-211,6588
14080,-243,6586
14079,-23,6835
13824,-66,6819
14079,-120,7052
13824,-158,7035
14079,-202,7280
13824,-249,7517
13568,-38,7506
13568,-51,7506
13823,-64,7507
13823,-56,7521
13823,-61,7529
13823,-75,7533
13823,-91,7532
13823,-99,7526
13823,-106,7527
13823,-109,7792
13568,-134,7791
13568,-153,7792
13568,-174,7791
13823,-208,7779
13823,-232,7768
13567,-14,8015
13312,-60,7998
13312,-110,7978
13567,-163,7947
13567,-457,8446
13312,-498,8439
13056,-277,8424
13311,-315,8408
13311,-350,8390
13311,-369,8377
13311,-377,8376
13311,-366,8386
13311,-373,8392
13311,-380,8381
13056,-392,8114
13311,-379,8102
13311,-381,8104
13056,-362,7855
13311,-326,7875
13311,-277,7911
13312,-214,7447
13567,-188,7469
13567,-181,7487
13567,-156,7517
13567,-125,7546
13567,-92,7845
13312,-78,7878
13312,-86,7890
13567,-116,8144
13312,-148,8143
13567,-187,8399
13312,-219,8405
13311,-14,8664
13056,-77,8659
13311,-142,8881
13056,-233,8842
13055,-29,9073
12800,-81,9065
13055,-109,9069
13055,-147,9322
12800,-184,9304
12800,-227,9289
13055,-254,9283
12799,-11,9283
12799,-26,9283
12799,-45,9279
12799,-46,9274
12799,-45,9278
12799,-35,9290
12544,-35,9307
12544,-31,9317
12544,-64,9097
12799,-73,9142
12799,-127,9166
12799,-213,9170
12288,-69,9164
12288,-135,9168
12288,-213,9194
12032,-33,9199
12032,-87,9169
12287,-111,9389
12032,-87,9347
12032,-94,9310
12032,-136,9294
12032,-137,9295
12032,-216,9299
11776,-22,9044
12031,-50,9340
11776,-78,9365
11776,-125,9374
12031,-153,9611
12031,-200,9824
11776,-245,9781
12031,-235,10014
12031,-241,10240
11775,-292,10677
11520,-319,10598
11775,-338,10787
11775,-549,11263
11520,-602,11214
11775,-632,11177
11775,-636,11427
11520,-643,11435
11775,-656,11439
11775,-671,11703
11520,-680,11723
11520,-699,11749
11520,-753,11754
11520,-747,11761
11520,-757,11773
11264,-527,11772
11264,-280,11266
11519,-309,11272
11519,-670,11516
11008,-525,11231
11263,-571,11222
11263,-582,11233
11263,-583,11483
11008,-626,11460
11008,-624,11203
11263,-655,11203
11263,-663,11203
11008,-678,10949
11263,-622,10974
11263,-359,10762
11008,-118,10766
11520,511,10488
11776,495,10433
11776,109,10164
11775,144,9828
11775,225,9639
11776,236,9684
12288,294,9512
12288,358,9254
12543,28,9399
12032,246,9077
12543,145,9395
12544,82,9431
12544,152,9387
12544,108,9304
12544,93,9264
12544,77,9260
12544,18,9256
12543,195,9512
12288,96,9502
12287,249,9743
12032,177,9736
12287,106,9735
12287,39,9988
11776,-29,10230
12031,-108,10468
11776,-178,10451
11776,-255,10434
11775,-57,10424
11775,-116,10675
11520,-177,10669
11520,-232,10662
11264,-38,10656
11264,-96,10655
11519,-129,10663
11519,-154,10667
11519,-217,10662
11519,-238,10918
11008,-31,10905
11008,-71,10895
11008,-119,10884
11263,-157,10881
11263,-229,10894
11007,-50,10914
10752,-109,10940
11007,-138,10952
11007,-183,10961
11007,-246,10959
10751,-51,11212
10496,-52,11229
10496,-49,11232
10751,-110,11202
10751,-196,11423
10496,-239,11410
10496,-228,11405
10496,-236,11373
10240,-9,11356
10240,-32,11368
10495,-51,11379
10495,-85,11636
10240,-117,11607
10495,-174,11565
10495,-215,11799
10240,-248,11802
9984,-6,11814
10239,-28,12076
9984,-81,12066
9984,-140,12059
10239,-191,12049
10239,-213,12052
10239,-214,12308
9984,-215,12292
10239,-496,12521
9983,-262,12759
9728,-282,12757
9728,-310,12759
9728,-321,12760
9728,-336,12743
9983,-355,12732
9983,-375,12727
9728,-410,12732
9728,-441,12745
9728,-482,12492
9727,-313,12501
9727,-418,12506
9471,-274,12501
9471,-381,12517
9215,-262,12536
9215,-66,12321
9215,-81,12643
8960,-97,12682
8960,-214,12665
8704,-72,12615
8704,-122,12570
8704,-158,12546
8704,-77,12643
8959,-50,12730
8959,-193,12637
8703,-97,12555
8447,-263,13041
8448,-199,12976
8448,131,12901
8192,-36,12990
8192,-197,12829
8703,-219,13053
8959,462,12805
8704,76,12899
8703,-194,12916
8447,-317,13303
8448,-111,13237
8704,193,13165
8704,-54,13016
8959,-15,12993
9215,53,12827
8959,-151,12925
8704,-201,12941
8960,60,12618
9215,92,12561
8959,-91,12654
8959,-43,12644
9215,-99,12715
9215,-197,12556
8959,-343,12949
8960,-158,12839
8960,-124,12859
8960,-176,12809
9215,-122,12814
9215,-487,13196
8704,-261,13146
9215,-438,13167
9215,-448,13133
9215,-497,13095
8960,-499,12829
8959,-273,12814
8959,-603,13048
8704,-685,13047
8704,-458,12825
8959,-463,12850
8703,-257,13094
8704,-510,13081
8959,-478,13358
8703,-282,13614
8703,-391,13592
8703,-437,13851
8448,-452,13875
8192,-270,13874
8192,-354,13856
8192,-357,13868
8192,-349,13875
8192,-405,13865
8192,-470,13614
8447,-492,13640
8192,-512,13651
7936,-280,13408
8191,-317,13437
8191,-362,13460
8191,-399,13483
7936,-413,13491
7936,-422,13480
7936,-445,13470
7936,-482,13466
7680,-270,13471
7680,-298,13488
7680,-306,13238
7935,-330,13240
7935,-376,13254
7935,-438,13530
7680,-503,13547
7424,-294,13561
7424,-65,13316
7424,-111,13325
7424,-153,13334
7424,-252,13346
7168,-57,13365
7423,-113,13377
7423,-181,13636
7168,-237,13639
7167,-10,13902
6912,-81,13907
6912,-169,13908
6912,-240,13892
7167,-230,13865
7167,-151,13853
7167,-350,14328
6912,-364,14271
6912,-355,14247
7167,-357,14212
7167,-383,14435
6912,-397,14430
6912,-391,14418
7167,-415,14397
7167,-454,14384
7167,-470,14368
7167,-461,14361
7167,-484,14360
6911,-263,14344
6911,-263,14350
6656,-272,14349
6656,-271,14351
6656,-281,14084
6911,-551,14332
6911,-315,14091
6911,-353,14088
6911,-377,14095
6911,-403,14111
6911,-447,14108
6656,-498,14122
6911,-506,14140
6655,-288,14141
6655,-316,14146
6655,-359,14156
6655,-395,14425
6400,-429,14429
6400,-462,14444
6400,-509,14469
6144,-322,14498
6399,-386,14526
6399,-438,14557
6399,-497,14580
6143,-26,14343
6143,-55,14352
6143,-77,14347
6143,-356,14591
6143,-389,14585
6143,-440,14840
5888,-492,14844
5632,-23,14596
5887,-63,14600
5887,-359,15101
5632,-150,14848
5632,-39,14920
5887,-123,15708
5376,-13,15874
5376,-137,15885
5376,-17,15942
5376,-73,15652
5631,-97,15635
5376,-413,15860
5376,-471,15828
5631,-445,15820
5631,-349,15820
5376,-339,15787
5376,-284,15528
5887,-488,15513
5887,-472,15485
5887,-460,15470
5632,-443,15458
5632,-419,15451
5632,-401,15183
5887,-411,15175
5887,-399,15177
5632,-401,15178
5632,-409,15185
5632,-429,15193
5632,-455,15201
5632,-478,14950
5887,-492,14956
5887,-496,14964
5631,-259,14975
5631,-267,14988
5376,-301,14999
5376,-338,15016
5376,-377,15032
5376,-417,15052
5376,-456,14821
5631,-454,14841
5376,-203,14602
5376,-235,14373
5631,-232,14411
5631,-226,14429
5375,-14,14425
5375,-42,14442
5375,-73,14444
5375,-167,14428
5375,-236,14422
5119,-22,14427
5375,-243,14437
5375,-223,14686
5120,-157,14654
5120,-381,14839
5375,-343,14782
5375,-341,14733
5375,-402,14949
4864,-270,14895
5119,-356,14877
5375,-398,14962
5375,-418,14917
5375,-368,14872
5375,-336,14853
5375,-599,15082
5375,-617,15054
5375,-613,15302
5120,-604,15288
5120,-624,15273
5120,-631,15272
5375,-643,15273
5375,-670,15271
5375,-704,15530
5120,-727,15539
5120,-759,15541
4864,-533,15552
5119,-553,15557
4864,-571,15563
4864,-582,15568
4864,-592,15573
4864,-606,15579
4864,-618,15586
4864,-626,15593
4864,-636,15600
4864,-643,15608
4864,-653,15614
4864,-402,15109
5119,-411,15114
5119,-419,15120
5119,-421,15123
5119,-416,15127
5119,-407,15133
4864,-400,15138
4864,-397,15141
4864,-397,15140
4864,-404,14889
5119,-410,14893
5119,-411,14896
5119,-414,14900
5119,-416,14901
5119,-416,14900
5119,-419,14901
5119,-421,14904
5119,-421,14903
4864,-419,14908
4864,-421,14913
4864,-424,14913
4864,-430,14917
4864,-438,14919
4864,-448,14925
4864,-464,14938
4864,-483,14948
4864,-502,14965
4608,-265,14984
4608,-281,15000
4608,-286,15013
4608,-315,14786
4863,-311,14803
4863,-330,14813
4863,-363,14823
4863,-371,14840
4863,-129,14593
4863,-141,14604
4863,-159,14610
4863,-161,14624
4863,-171,14629
4608,-181,14632
4608,-171,14636
4608,-196,14625
4608,-205,14622
4608,-176,14367
4863,-170,14362
4863,-196,14360
4863,-250,14356
4607,-40,14628
4352,-69,14655
4352,-48,14429
4607,-105,14430
4607,-98,14451
4863,-200,14478
4352,-47,14436
4352,-67,14441
4352,-174,14428
4352,-186,14451
4352,-77,14480
4352,-171,14457
4352,-249,14442
4352,-249,14210
4607,-209,13959
4352,-144,13415
4352,-469,12700
4352,-564,11717
4863,-585,11047
4864,-939,10530
5376,-895,10547
5376,-1255,11194
5375,-1125,11959
5119,-799,13171
5119,-681,14744
4608,-260,15903
4608,-477,16704
4607,-478,17435
4351,-736,18132
4095,-724,18285
3839,-691,18210
3583,-573,17925
3583,-891,17910
3328,-869,17393
4351,-685,17139
4096,-685,16572
4351,-757,16517
4096,-721,16316
4095,-520,16308
4095,-517,16327
3840,-533,16344
3840,-547,16356
3840,-566,16366
3840,-561,16122
4095,-319,15875
4095,-325,15887
3840,-326,15640
4095,-335,15640
3840,-351,15642
3840,-366,15401
4095,-375,15414
3840,-378,15169
4095,-386,15168
4095,-370,15174
3840,-370,15174
3840,-376,15179
3840,-399,15186
3840,-407,15185
3840,-406,14934
4095,-403,14937
4095,-414,14941
4095,-432,14950
4095,-461,15223
3840,-481,15230
3840,-472,15232
3840,-492,15228
3840,-489,15237
3840,-502,14984
3839,-261,14984
3839,-280,15007
3839,-77,15928
3328,-344,16533
3584,-338,16066
3584,-403,16056
3839,-412,16038
3584,-352,15808
3839,-381,15816
3839,-418,15827
3584,-411,15597
3839,-195,15364
3328,-14,15387
3584,-143,15234
3584,-85,15029
3839,-201,15038
3584,120,14663
3839,199,14789
3584,110,14809
4351,459,14410
4095,460,14606
4095,385,14597
3840,84,14823
4095,96,14776
3584,151,14720
3839,62,14671
3584,95,14664
3328,213,14358
3583,-136,13982
3327,-288,13261
3072,-708,12243
3327,-981,11483
2816,-933,10540
2816,-915,10424
2560,-803,9874
3071,-1071,9961
3583,-959,10240
3839,-1002,11762
3584,-320,12816
3839,-283,14216
3584,-431,15038
3583,-386,15532
3327,-389,15966
3071,-648,16352
2815,-654,16463
2559,-927,16842
2303,-896,17031
2047,-834,17239
1792,-1015,17186
1791,-937,17442
1792,-559,17530
2559,-462,17703
2304,-494,17675
2048,-659,17609
2048,-747,17314
1792,-546,17040
2047,-581,17039
1792,-597,17056
1792,-598,17087
2047,-599,17118
2047,-617,17133
2047,-650,17141
2047,-678,17138
2047,-711,17131
1792,-729,16873
2047,-747,16876
1792,-747,16884
1792,-754,16893
1536,-515,16638
1791,-275,16386
1791,-275,16394
1536,-274,16144
1791,-267,16152
1791,-275,16162
1791,-293,16165
1791,-314,16164
1791,-320,16168
1791,-332,16162
1536,-341,15903
1791,-349,15902
1536,-379,15905
1536,-411,15654
1791,-445,15655
1791,-496,15653
1535,-307,15648
1280,-387,15644
1280,-424,15417
1535,-489,15414
1279,-288,15410
1024,-347,15402
1024,-392,15403
1279,-453,15408
1023,-260,15393
2303,-213,15415
1792,-151,15426
1791,-379,15589
1535,-283,15533
1280,-391,15526
2047,-207,15136
1791,-104,15132
1535,-282,15317
1535,-304,15308
1791,-130,15115
1280,-34,15121
1280,-28,15153
1280,-35,14920
1535,-147,15172
1280,-103,14934
1535,-131,14935
1535,-203,15180
1280,-214,15166
1280,-244,15155
1024,-11,15137
1279,-349,15357
1279,-370,15313
1279,-425,15254
1279,-460,15437
768,-564,15586
1023,-617,15672
511,-730,18448
767,-690,18196
256,-912,18103
256,-997,18128
256,-547,17706
256,-646,17180
511,-603,16968
511,-672,16993
511,-630,17019
256,-632,17038
511,-646,17053
256,-656,16792
511,-647,16799
511,-655,16809
511,-668,16809
256,-672,16539
511,-671,16532
511,-675,16527
511,-680,16527
256,-680,16526
256,-674,16534
256,-680,16541
256,-685,16289
511,-687,16292
511,-689,16305
511,-686,16320
511,-686,16340
256,-688,16350
256,-694,16359
256,-700,16365
256,-702,16365
256,-700,16365
256,-701,16109
511,-699,16111
511,-691,16111
511,-687,16110
511,-689,16106
511,-688,16105
511,-687,16102
511,-686,16097
511,-687,16096
511,-681,16092
511,-675,16087
511,-677,16084
511,-682,16081
511,-689,16089
511,-697,16096
256,-705,16104
256,-712,16113
256,-718,16119
256,-724,16125
256,-726,16127
256,-473,15875
256,-473,15875
256,-471,15875
256,-474,15874
256,-731,16126
256,-733,16126
256,-472,15873
256,-472,15873
256,-471,15873
256,-467,15872
256,-724,16124
256,-722,16121
256,-723,16119
256,-719,16118
256,-712,16122
256,-705,16118
256,-701,16116
256,-698,16112
256,-689,16107
256,-682,16099
256,-671,16090
256,-666,16077
256,-745,15842
511,-732,16127
256,-735,16123
256,-730,16124
256,-733,16124
256,-729,15867
511,-728,15867
511,-725,15868
511,-724,15864
511,-727,15862
511,-725,15864
511,-727,15863
511,-726,15865
511,-723,15865
511,-724,15861
511,-723,15861
511,-723,15860
511,-722,15861
511,-721,15862
511,-722,15861
511,-722,15861
511,-720,15862
511,-721,15864
511,-722,15865
511,-722,15866
511,-724,15862
511,-723,15860
511,-721,15861
511,-722,15861
511,-724,15862
511,-723,15861
511,-724,15863
511,-727,15864
511,-724,15865
511,-724,15866
511,-724,15866
511,-725,15866
511,-726,15866
511,-732,15865
511,-734,15863
511,-733,15860
511,-731,15862
511,-732,15864
511,-732,15862
511,-730,15862
511,-726,15860
511,-728,15864
511,-730,15868
511,-731,15868
511,-730,15867
511,-734,15866
511,-732,15865
511,-729,15864
511,-729,15867
511,-728,15864
511,-727,15861
511,-728,15860
511,-729,15863
511,-731,15863
511,-730,15864
511,-728,15865
511,-730,15868
511,-731,15862
511,-730,15863
511,-727,15860
511,-731,15861
511,-731,15864
511,-733,15866
511,-731,15867
511,-732,15868
511,-732,15864
511,-730,15863
511,-727,15864
511,-725,15863
511,-726,15866
511,-726,15863
511,-729,15862
511,-729,15862
511,-728,15860
511,-729,15860
511,-724,15860
511,-723,15859
511,-718,15857
511,-717,15855
511,-716,15856
511,-714,15858
511,-717,15858
511,-718,15861
511,-717,15864
511,-717,15865
511,-715,15864
511,-715,15863
511,-715,15865
511,-715,15864
511,-716,15864
511,-715,15869
511,-718,15870
511,-463,15618
511,-720,15870
511,-719,15869
511,-717,15867
511,-460,15617
511,-460,15619
511,-462,15619
511,-461,15619
511,-461,15616
511,-460,15616
511,-721,15870
511,-721,15868
511,-724,15867
511,-726,15867
511,-725,15865
511,-727,15864
511,-726,15863
511,-725,15865
511,-729,15864
511,-729,15863
511,-729,15863
511,-728,15862
511,-723,15862
511,-722,15865
511,-725,15864
511,-727,15863
511,-729,15865
511,-730,15868
511,-731,15868
511,-731,15867
511,-731,15864
511,-730,15863
511,-730,15861
511,-729,15862
511,-728,15864
511,-727,15867
511,-725,15865
511,-725,15863
511,-726,15863
511,-723,15864
511,-719,15863
511,-721,15866
511,-721,15866
511,-716,15866
511,-715,15863
511,-717,16117
256,-720,16121
256,-719,16123
256,-718,15862
511,-718,15863
511,-720,15864
511,-720,15865
511,-722,15862
511,-720,15865
511,-719,15865
511,-718,15867
511,-717,15865
511,-718,15865
511,-718,15863
511,-718,15861
511,-719,15859
511,-720,15860
511,-719,15861
511,-723,15861
511,-723,15858
511,-728,15856
511,-729,15854
511,-730,15854
511,-734,15852
511,-736,15850
511,-741,15848
511,-750,15842
511,-753,15835
511,-755,15830
511,-755,15832
511,-753,15835
511,-743,15842
511,-744,15843
511,-738,15847
511,-765,16103
0,-535,16101
0,-548,16106
255,-546,16361
0,-513,16107
511,-351,15633
511,-261,15396
767,-413,15161
767,-385,15140
511,-512,16178
511,-480,16139
256,-422,15620
511,-454,15879
256,-448,15877
256,-438,15882
256,-436,15879
256,-445,15878
256,-438,15877
256,-441,15876
256,-441,15877
256,-443,15877
256,-442,15873
256,-701,15869
511,-708,15867
511,-707,15867
511,-704,15870
511,-441,15623
511,-437,15627
511,-435,15886
256,-435,15885
256,-435,15883
256,-436,15882
256,-440,15882
256,-438,15883
256,-439,15881
256,-439,15879
256,-439,15881
256,-440,15883
256,-442,15884
256,-440,15885
256,-440,15883
256,-440,15884
256,-440,15885
256,-441,15883
256,-440,15882
256,-443,15882
256,-442,15882
256,-443,15879
256,-441,15879
256,-441,15881
256,-440,15881
256,-441,15883
256,-440,15882
256,-441,15887
256,-443,15888
256,-441,15884
256,-440,15886
256,-441,15885
256,-442,15887
256,-443,15888
256,-444,15630
511,-443,15631
511,-445,15886
256,-446,15630
511,-443,15627
511,-443,15626
511,-441,15625
511,-441,15628
511,-439,15629
511,-439,15632
511,-443,15631
511,-443,15630
511,-443,15629
511,-443,15630
511,-443,15633
511,-443,15636
511,-442,15636
511,-442,15892
256,-437,15889
256,-434,15633
511,-432,15634
511,-434,15635
511,-435,15636
511,-433,15635
511,-430,15636
511,-429,15637
511,-431,15638
511,-430,15639
511,-429,15639
511,-429,15639
511,-431,15641
511,-431,15638
511,-431,15638
511,-433,15639
511,-432,15642
511,-434,15640
511,-436,15641
511,-436,15643
511,-435,15646
511,-436,15645
511,-434,15642
511,-436,15639
511,-440,15640
511,-441,15640
511,-441,15640
511,-441,15639
511,-443,15640
511,-445,15642
511,-445,15644
511,-445,15641
511,-444,15640
511,-443,15638
511,-442,15639
511,-444,15634
511,-444,15634
511,-445,15634
511,-447,15636
511,-447,15636
511,-449,15634
511,-446,15637
511,-447,15635
511,-449,15637
511,-448,15639
511,-451,15639
511,-451,15638
511,-450,15635
511,-450,15634
511,-450,15634
511,-452,15634
511,-452,15635
511,-451,15635
511,-449,15632
511,-451,15635
511,-452,15635
511,-452,15633
511,-451,15633
511,-448,15633
511,-446,15630
511,-450,15627
511,-451,15629
511,-452,15629
511,-448,15626
511,-449,15624
511,-451,15626
511,-454,15626
511,-454,15629
511,-452,15630
511,-450,15632
511,-448,15632
511,-444,15633
511,-444,15632
511,-445,15629
511,-449,15629
511,-446,15627
511,-443,15625
511,-448,15626
511,-448,15625
511,-445,15622
511,-445,15625
511,-446,15625
511,-445,15624
511,-444,15624
511,-445,15625
511,-445,15625
511,-444,15628
511,-443,15628
511,-444,15626
511,-445,15628
511,-447,15629
511,-446,15630
511,-446,15629
511,-449,15630
511,-452,15632
511,-452,15637
511,-452,15638
511,-453,15635
511,-454,15633
511,-454,15632
511,-452,15635
511,-448,15633
511,-449,15631
511,-451,15630
511,-452,15633
511,-450,15630
511,-453,15629
511,-448,15629
511,-449,15627
511,-450,15630
511,-450,15628
511,-453,15630
511,-452,15633
511,-450,15637
511,-452,15640
511,-451,15642
511,-450,15640
511,-450,15638
511,-448,15638
511,-446,15636
511,-446,15636
511,-447,15635
511,-445,15635
511,-447,15637
511,-449,15637
511,-451,15636
511,-453,15635
511,-452,15633
511,-453,15633
511,-456,15633
511,-458,15633
511,-454,15633
511,-455,15632
511,-456,15636
511,-456,15636
511,-456,15638
511,-455,15637
511,-455,15635
511,-452,15633
511,-448,15631
511,-447,15628
511,-442,15627
511,-443,15631
511,-444,15632
511,-442,15635
511,-444,15634
511,-443,15636
511,-444,15637
511,-441,15638
511,-440,15640
511,-448,15638
511,-448,15638
511,-447,15638
511,-445,15636
511,-443,15634
511,-442,15636
511,-441,15636
511,-439,15634
511,-439,15634
511,-443,15631
511,-447,15628
511,-448,15628
511,-450,15627
511,-452,15630
511,-449,15627
511,-448,15627
511,-450,15628
511,-450,15629
511,-449,15631
511,-446,15632
511,-447,15632
511,-447,15636
511,-446,15633
511,-448,15630
511,-448,15628
511,-452,15629
511,-453,15628
511,-454,15625
511,-453,15624
511,-450,15624
511,-449,15625
511,-446,15625
511,-445,15627
511,-442,15628
511,-440,15625
511,-440,15626
511,-441,15626
511,-441,15625
511,-440,15624
511,-442,15623
511,-443,15624
511,-442,15626
511,-442,15625
511,-444,15628
511,-444,15631
511,-440,15632
511,-439,15631
511,-438,15632
511,-438,15635
511,-437,15633
511,-435,15635
511,-436,15639
511,-435,15635
511,-436,15631
511,-434,15628
511,-435,15630
511,-436,15629
511,-436,15630
511,-437,15631
511,-438,15634
511,-438,15631
511,-437,15629
511,-436,15628
511,-440,15628
511,-442,15629
511,-442,15630
511,-442,15631
511,-438,15631
511,-438,15631
511,-438,15631
511,-437,15634
511,-439,15634
511,-441,15634
511,-438,15637
511,-437,15636
511,-435,15634
511,-433,15633
511,-433,15631
511,-431,15628
511,-434,15629
511,-435,15631
511,-433,15628
511,-434,15628
511,-433,15627
511,-438,15626
511,-441,15627
511,-440,15629
511,-444,15630
511,-446,15632
511,-445,15633
511,-447,15632
511,-449,15633
511,-444,15632
511,-439,15635
511,-439,15639
511,-439,15638
511,-440,15636
511,-440,15639
511,-440,15637
511,-438,15639
511,-437,15641
511,-436,15637
511,-438,15639
511,-436,15641
511,-437,15638
511,-435,15639
511,-434,15640
511,-435,15641
511,-436,15644
511,-439,15642
511,-437,15640
511,-438,15641
511,-440,15641
511,-441,15641
511,-442,15641
511,-444,15641
511,-444,15638
511,-443,15633
511,-445,15634
511,-448,15637
511,-449,15638
511,-446,15636
511,-444,15636
511,-445,15638
511,-443,15637
511,-443,15634
511,-444,15635
511,-441,15634
511,-438,15635
511,-437,15639
511,-438,15636
511,-438,15636
511,-441,15632
511,-439,15633
511,-440,15636
511,-439,15637
511,-439,15641
511,-440,15643
511,-439,15644
511,-439,15644
511,-440,15641
511,-437,15639
511,-439,15637
511,-443,15636
511,-442,15636
511,-440,15637
511,-440,15637
511,-438,15637
511,-435,15639
511,-436,15637
511,-437,15634
511,-439,15636
511,-438,15639
511,-440,15639
511,-440,15639
511,-441,15639
511,-442,15636
511,-439,15636
511,-443,15633
511,-443,15635
511,-444,15635
511,-444,15635
511,-445,15633
511,-443,15634
511,-441,15638
511,-440,15639
511,-440,15638
511,-438,15639
511,-438,15637
511,-441,15636
511,-443,15637
511,-440,15635
511,-440,15633
511,-439,15631
511,-440,15634
511,-436,15635
511,-438,15631
511,-440,15630
511,-440,15632
511,-443,15634
511,-446,15636
511,-445,15635
511,-444,15632
511,-443,15631
511,-443,15631
511,-441,15634
511,-443,15634
511,-443,15633
511,-442,15635
511,-440,15636
511,-442,15633
511,-441,15629
511,-439,15630
511,-435,15630
511,-438,15633
511,-438,15632
511,-436,15630
511,-438,15630
511,-440,15630
511,-439,15628
511,-439,15630
511,-438,15631
511,-436,15633
511,-437,15632
511,-434,15631
511,-430,15629
511,-430,15632
511,-431,15634
511,-431,15634
511,-431,15633
511,-430,15634
511,-431,15635
511,-434,15635
511,-435,15633
511,-437,15633
511,-441,15633
511,-444,15634
511,-445,15635
511,-442,15636
511,-443,15633
511,-445,15632
511,-446,15632
511,-445,15637
511,-447,15637
511,-445,15638
511,-444,15636
511,-446,15635
511,-444,15634
511,-441,15634
511,-440,15634
511,-439,15633
511,-442,15635
511,-443,15635
511,-444,15633
511,-444,15633
511,-445,15634
511,-450,15631
511,-451,15628
511,-449,15627
511,-446,15627
511,-447,15627
511,-447,15627
511,-448,15627
511,-449,15630
511,-448,15630
511,-445,15630
511,-446,15629
511,-447,15629
511,-447,15629
511,-449,15628
511,-446,15629
511,-447,15630
511,-446,15630
511,-444,15630
511,-443,15629
511,-442,15631
511,-444,15632
511,-444,15633
511,-444,15632
511,-447,15632
511,-441,15630
511,-438,15632
511,-438,15634
511,-435,15633
511,-436,15635
511,-436,15638
511,-436,15636
511,-437,15632
511,-436,15635
511,-439,15635
511,-437,15637
511,-437,15636
511,-441,15635
511,-444,15634
511,-441,15635
511,-442,15637
511,-443,15636
511,-444,15638
511,-444,15635
511,-441,15634
511,-444,15637
511,-446,15639
511,-447,15641
511,-448,15643
511,-448,15641
511,-447,15642
511,-449,15642
511,-448,15642
511,-448,15640
511,-448,15641
511,-447,15636
511,-447,15635
511,-445,15638
511,-444,15636
511,-444,15634
511,-443,15636
511,-444,15637
511,-446,15636
511,-447,15639
511,-444,15638
511,-445,15638
511,-445,15639
511,-447,15642
511,-449,15643
511,-448,15640
511,-450,15637
511,-449,15633
511,-448,15633
511,-446,15637
511,-446,15637
511,-446,15634
511,-449,15637
511,-448,15638
511,-448,15640
511,-446,15638
511,-446,15639
511,-445,15640
511,-443,15638
511,-442,15639
511,-441,15640
511,-439,15637
511,-439,15636
511,-440,15632
511,-437,15634
511,-438,15638
511,-439,15640
511,-440,15642
511,-439,15637
511,-437,15637
511,-437,15637
511,-436,15638
511,-439,15642
511,-438,15643
511,-439,15641
511,-436,15641
511,-434,15641
511,-434,15641
511,-433,15640
511,-434,15636
511,-432,15636
511,-436,15632
511,-438,15632
511,-440,15635
511,-439,15637
511,-439,15637
511,-438,15891
256,-439,15888
256,-440,15634
511,-441,15635
511,-438,15633
511,-439,15631
511,-437,15632
511,-436,15631
511,-438,15631
511,-438,15631
511,-438,15632
511,-438,15632
511,-440,15630
511,-442,15631
511,-444,15629
511,-441,15628
511,-438,15628
511,-439,15628
511,-437,15631
511,-434,15632
511,-434,15889
256,-432,15888
256,-434,15888
256,-431,15887
256,-429,15886
256,-432,15888
256,-435,15632
511,-434,15631
511,-435,15633
511,-433,15632
511,-434,15632
511,-434,15632
511,-432,15633
511,-432,15633
511,-433,15633
511,-433,15633
511,-434,15633
511,-432,15634
511,-433,15634
511,-433,15636
511,-433,15638
511,-432,15639
511,-431,15638
511,-432,15639
511,-438,15639
511,-441,15638
511,-442,15640
511,-441,15641
511,-439,15643
511,-437,15641
511,-440,15642
511,-442,15640
511,-440,15642
511,-437,15641
511,-434,15641
511,-434,15639
511,-434,15635
511,-432,15637
511,-435,15637
511,-435,15635
511,-432,15635
511,-430,15637
511,-431,15637
511,-432,15636
511,-431,15639
511,-428,15639
511,-426,15635
511,-426,15638
511,-424,15635
511,-424,15638
511,-423,15638
511,-424,15637
511,-424,15637
511,-424,15637
511,-424,15636
511,-428,15637
511,-428,15637
511,-432,15637
511,-434,15639
511,-434,15638
511,-435,15639
511,-434,15638
511,-435,15638
511,-437,15638
511,-436,15641
511,-435,15640
511,-436,15639
511,-436,15637
511,-436,15637
511,-436,15638
511,-435,15639
511,-436,15640
511,-440,15635
511,-442,15632
511,-445,15631
511,-444,15630
511,-444,15629
511,-442,15628
511,-441,15627
511,-440,15626
511,-440,15628
511,-441,15633
511,-445,15631
511,-442,15629
511,-440,15628
511,-438,15886
256,-437,15629
511,-437,15627
511,-434,15625
511,-434,15624
511,-435,15627
511,-435,15629
511,-437,15627
511,-436,15627
511,-436,15628
511,-434,15629
511,-433,15630
511,-433,15630
511,-432,15631
511,-433,15633
511,-435,15634
511,-434,15633
511,-433,15632
511,-434,15632
511,-438,15629
511,-436,15629
511,-436,15625
511,-436,15628
511,-437,15630
511,-441,15628
511,-440,15627
511,-442,15625
511,-439,15625
511,-439,15629
511,-438,15629
511,-434,15630
511,-433,15629
511,-435,15629
511,-434,15629
511,-435,15629
511,-438,15630
511,-438,15632
511,-438,15633
511,-436,15636
511,-437,15636
511,-437,15637
511,-436,15636
511,-436,15635
511,-434,15638
511,-436,15635
511,-437,15632
511,-440,15632
511,-442,15632
511,-440,15632
511,-438,15633
511,-438,15630
511,-440,15630
511,-442,15630
511,-439,15631
511,-440,15629
511,-441,15624
511,-443,15626
511,-446,15626
511,-446,15627
511,-450,15626
511,-446,15624
511,-443,15625
511,-441,15627
511,-439,15628
511,-438,15628
511,-441,15627
511,-441,15628
511,-440,15625
511,-442,15627
511,-441,15625
511,-438,15625
511,-438,15626
511,-433,15629
511,-432,15630
511,-432,15628
511,-431,15628
511,-437,15628
511,-436,15629
511,-439,15630
511,-436,15634
511,-434,15636
511,-436,15635
511,-437,15633
511,-437,15633
511,-437,15634
511,-440,15634
511,-443,15635
511,-444,15634
511,-443,15634
511,-442,15633
511,-440,15632
511,-443,15634
511,-443,15636
511,-442,15636
511,-444,15635
511,-446,15635
511,-446,15637
511,-445,15636
511,-445,15633
511,-446,15633
511,-446,15635
511,-447,15637
511,-447,15636
511,-447,15635
511,-449,15637
511,-448,15634
511,-447,15631
511,-448,15628
511,-449,15626
511,-449,15626
511,-447,15627
511,-445,15629
511,-446,15631
511,-446,15630
511,-449,15627
511,-447,15626
511,-448,15626
511,-441,15628
511,-442,15626
511,-440,15622
511,-440,15623
511,-438,15622
511,-436,15623
511,-437,15622
511,-435,15619
511,-436,15620
511,-437,15623
511,-438,15622
511,-439,15626
511,-438,15629
511,-438,15630
511,-438,15630
511,-436,15631
511,-437,15633
511,-436,15638
511,-435,15637
511,-437,15638
511,-439,15636
511,-440,15636
511,-445,15635
511,-445,15632
511,-445,15627
511,-446,15631
511,-444,15633
511,-444,15635
511,-443,15635
511,-444,15638
511,-445,15637
511,-447,15638
511,-446,15637
511,-451,15637
511,-451,15636
511,-451,15635
511,-450,15635
511,-451,15635
511,-453,15634
511,-452,15635
511,-450,15636
511,-450,15633
511,-450,15634
511,-450,15633
511,-450,15629
511,-451,15627
511,-452,15630
511,-452,15629
511,-453,15626
511,-453,15626
511,-453,15626
511,-450,15624
511,-453,15623
511,-453,15621
511,-454,15622
511,-453,15623
511,-450,15624
511,-449,15626
511,-449,15627
511,-450,15627
511,-447,15626
511,-448,15626
511,-447,15627
511,-448,15629
511,-446,15632
511,-445,15632
511,-446,15633
511,-447,15631
511,-448,15628
511,-447,15631
511,-445,15632
511,-443,15632
511,-440,15632
511,-440,15634
511,-442,15632
511,-438,15632
511,-438,15633
511,-437,15633
511,-437,15634
511,-438,15635
511,-437,15636
511,-437,15633
511,-437,15633
511,-436,15635
511,-435,15635
511,-438,15634
511,-440,15635
511,-440,15635
511,-442,15637
511,-444,15636
511,-444,15635
511,-442,15638
511,-442,15638
511,-445,15639
511,-446,15635
511,-444,15636
511,-449,15638
511,-450,15635
511,-451,15634
511,-453,15636
511,-454,15638
511,-452,15640
511,-450,15636
511,-451,15636
511,-452,15637
511,-451,15637
511,-453,15639
511,-455,15639
511,-453,15643
511,-453,15643
511,-448,15644
511,-446,15644
511,-444,15641
511,-444,15641
511,-447,15642
511,-447,15642
511,-447,15640
511,-445,15641
511,-445,15638
511,-447,15636
511,-447,15637
511,-449,15638
511,-448,15643
511,-448,15643
511,-449,15642
511,-446,15639
511,-446,15638
511,-444,15639
511,-448,15639
511,-449,15639
511,-448,15638
511,-449,15638
511,-450,15637
511,-450,15637
511,-451,15638
511,-448,15637
511,-446,15636
511,-445,15638
511,-447,15640
511,-446,15639
511,-442,15640
511,-440,15642
511,-441,15639
511,-440,15637
511,-440,15639
511,-442,15640
511,-440,15638
511,-438,15635
511,-439,15634
511,-438,15631
511,-437,15629
511,-435,15632
511,-437,15631
511,-435,15628
511,-435,15628
511,-434,15628
511,-434,15624
511,-433,15627
511,-437,15628
511,-440,15629
511,-441,15629
511,-442,15629
511,-441,15628
511,-441,15627
511,-444,15629
511,-444,15625
511,-444,15625
511,-446,15624
511,-445,15624
511,-442,15623
511,-447,15623
511,-448,15621
511,-445,15617
511,-702,15870
511,-700,15871
511,-446,15617
511,-448,15620
511,-447,15623
511,-445,15622
511,-448,15623
511,-448,15624
511,-447,15624
511,-448,15624
511,-451,15624
511,-454,15623
511,-453,15622
511,-452,15621
511,-451,15621
511,-453,15619
511,-452,15620
511,-450,15619
511,-453,15618
511,-456,15619
511,-459,15621
511,-461,15625
511,-459,15622
511,-457,15619
511,-458,15618
511,-455,15619
511,-454,15622
511,-453,15625
511,-450,15623
511,-450,15621
511,-455,15618
511,-708,15871
511,-707,15871
511,-450,15616
511,-450,15616
511,-448,15619
511,-446,15621
511,-446,15622
511,-444,15626
511,-445,15630
511,-451,15631
511,-454,15632
511,-452,15631
511,-454,15633
511,-451,15634
511,-453,15634
511,-453,15636
511,-454,15637
511,-451,15636
511,-452,15636
511,-449,15636
511,-450,15637
511,-453,15637
511,-452,15635
511,-451,15634
511,-451,15635
511,-454,15629
511,-454,15630
511,-452,15631
511,-450,15630
511,-450,15631
511,-449,15630
511,-445,15630
511,-445,15626
511,-440,15629
511,-438,15632
511,-438,15635
511,-437,15633
511,-437,15634
511,-435,15636
511,-437,15636
511,-437,15635
511,-438,15634
511,-442,15636
511,-445,15637
511,-446,15633
511,-445,15630
511,-444,15628
511,-444,15629
511,-443,15632
511,-445,15634
511,-446,15635
511,-442,15636
511,-441,15635
511,-440,15636
511,-441,15638
511,-441,15636
511,-439,15637
511,-435,15635
511,-438,15635
511,-439,15633
511,-437,15632
511,-437,15633
511,-437,15631
511,-438,15632
511,-437,15631
511,-440,15630
511,-441,15628
511,-442,15624
511,-442,15626
511,-441,15626
511,-438,15626
511,-434,15629
511,-433,15628
511,-430,15630
511,-430,15631
511,-429,15628
511,-430,15627
511,-432,15627
511,-432,15623
511,-436,15626
511,-439,15626
511,-438,15624
511,-438,15624
511,-441,15624
511,-443,15625
511,-444,15627
511,-445,15625
511,-447,15625
511,-451,15626
511,-449,15626
511,-450,15626
511,-449,15626
511,-447,15628
511,-446,15627
511,-447,15625
511,-451,15626
511,-448,15630
511,-446,15628
511,-442,15628
511,-439,15626
511,-436,15627
511,-434,15624
511,-436,15623
511,-437,15624
511,-437,15623
511,-436,15627
511,-438,15627
511,-435,15631
511,-434,15633
511,-433,15630
511,-435,15632
511,-433,15630
511,-435,15632
511,-439,15632
511,-439,15630
511,-440,15626
511,-441,15631
511,-442,15633
511,-443,15634
511,-443,15635
511,-446,15631
511,-450,15627
511,-448,15623
511,-447,15620
511,-444,15620
511,-442,15618
511,-442,15620
511,-440,15621
511,-441,15623
511,-442,15622
511,-442,15624
511,-441,15624
511,-437,15623
511,-438,15627
511,-436,15628
511,-436,15627
511,-435,15625
511,-432,15625
511,-431,15625
511,-432,15625
511,-434,15631
511,-435,15632
511,-437,15632
511,-437,15634
511,-437,15632
511,-436,15628
511,-436,15629
511,-439,15627
511,-440,15627
511,-439,15625
511,-437,15624
511,-434,15620
511,-431,15624
511,-430,15623
511,-432,15627
511,-431,15627
511,-434,15626
511,-431,15627
511,-429,15628
511,-434,15626
511,-432,15629
511,-432,15630
511,-434,15630
511,-432,15629
511,-431,15627
511,-431,15625
511,-432,15627
511,-432,15627
511,-429,15626
511,-430,15628
511,-428,15628
511,-426,15629
511,-426,15628
511,-424,15628
511,-424,15634
511,-427,15634
511,-431,15631
511,-431,15631
511,-431,15632
511,-432,15632
511,-433,15633
511,-430,15634
511,-433,15635
511,-434,15634
511,-436,15632
511,-437,15634
511,-438,15637
511,-438,15639
511,-439,15640
511,-438,15639
511,-438,15638
511,-436,15636
511,-438,15633
511,-440,15633
511,-441,15633
511,-442,15633
511,-440,15632
511,-439,15633
511,-441,15633
511,-439,15634
511,-437,15638
511,-439,15637
511,-442,15641
511,-446,15641
511,-447,15896
256,-446,15897
256,-448,15899
256,-448,15899
256,-447,15899
256,-448,15642
511,-447,15641
511,-448,15638
511,-446,15638
511,-442,15641
511,-441,15641
511,-441,15641
511,-442,15898
256,-444,15642
511,-444,15642
511,-447,15640
511,-446,15638
511,-442,15637
511,-443,15639
511,-440,15889
256,-445,15889
256,-443,15634
511,-444,15634
511,-443,15635
511,-442,15635
511,-440,15893
256,-437,15891
256,-437,15635
511,-436,15633
511,-436,15890
256,-437,15893
256,-437,15891
256,-438,15890
256,-438,15887
256,-437,15887
256,-439,15632
511,-438,15633
511,-440,15635
511,-439,15891
256,-442,15892
256,-441,15891
256,-438,15892
256,-440,15633
511,-440,15633
511,-436,15885
256,-438,15885
256,-437,15889
256,-442,15891
256,-441,15635
511,-444,15635
511,-448,15634
511,-450,15636
511,-450,15634
511,-452,15886
256,-451,15630
511,-453,15632
511,-454,15633
511,-454,15634
511,-452,15634
511,-452,15635
511,-449,15635
511,-451,15632
511,-449,15634
511,-448,15635
511,-445,15635
511,-446,15637
511,-445,15639
511,-446,15637
511,-447,15637
511,-448,15638
511,-448,15634
511,-447,15638
511,-449,15641
511,-449,15641
511,-446,15641
511,-447,15640
511,-450,15640
511,-452,15638
511,-453,15638
511,-454,15637
511,-454,15636
511,-451,15636
511,-452,15640
511,-451,15639
511,-453,15640
511,-453,15638
511,-453,15638
511,-453,15636
511,-450,15632
511,-448,15630
511,-445,15631
511,-448,15632
511,-450,15630
511,-450,15629
511,-451,15630
511,-454,15630
511,-452,15632
511,-452,15631
511,-454,15635
511,-454,15640
511,-453,15639
511,-452,15641
511,-449,15639
511,-449,15641
511,-451,15640
511,-451,15639
511,-450,15636
511,-449,15639
511,-447,15640
511,-449,15638
511,-450,15633
511,-450,15631
511,-449,15629
511,-449,15631
511,-449,15631
511,-447,15632
511,-446,15635
511,-444,15636
511,-443,15637
511,-444,15638
511,-446,15639
511,-446,15640
511,-443,15896
256,-442,15897
256,-440,15894
256,-440,15896
256,-443,15899
256,-444,15898
256,-444,15642
511,-442,15644
511,-442,15643
511,-441,15644
511,-443,15646
511,-445,15647
511,-446,15645
511,-449,15644
511,-449,15643
511,-451,15640
511,-453,15636
511,-449,15637
511,-448,15634
511,-448,15633
511,-447,15632
511,-449,15632
511,-448,15635
511,-446,15638
511,-446,15636
511,-447,15636
511,-449,15632
511,-451,15633
511,-452,15633
511,-450,15636
511,-450,15634
511,-448,15633
511,-448,15630
511,-446,15629
511,-447,15627
511,-447,15630
511,-448,15627
511,-452,15626
511,-453,15628
511,-453,15629
511,-454,15631
511,-452,15630
511,-451,15630
511,-449,15630
511,-450,15631
511,-454,15631
511,-453,15631
511,-451,15632
511,-450,15630
511,-449,15631
511,-445,15634
511,-442,15633
511,-439,15634
511,-436,15634
511,-442,15632
511,-441,15630
511,-440,15631
511,-443,15631
511,-443,15630
511,-442,15629
511,-442,15630
511,-442,15633
511,-441,15634
511,-444,15631
511,-443,15632
511,-443,15635
511,-444,15636
511,-446,15637
511,-445,15637
511,-444,15635
511,-444,15632
511,-444,15634
511,-444,15635
511,-444,15634
511,-444,15637
511,-442,15636
511,-440,15636
511,-441,15637
511,-444,15640
511,-441,15635
511,-441,15637
511,-444,15636
511,-446,15635
511,-442,15633
511,-441,15633
511,-440,15631
511,-437,15634
511,-434,15632
511,-432,15635
511,-429,15637
511,-432,15640
511,-434,15640
511,-435,15639
511,-439,15640
511,-437,15640
511,-439,15635
511,-441,15637
511,-443,15638
511,-444,15640
511,-444,15640
511,-445,15641
511,-445,15639
511,-446,15638
511,-446,15636
511,-446,15637
511,-444,15641
511,-444,15640
511,-441,15639
511,-443,15638
511,-442,15637
511,-440,15639
511,-440,15643
511,-441,15643
511,-442,15645
511,-441,15647
511,-438,15646
511,-440,15647
511,-441,15647
511,-440,15648
511,-440,15649
511,-438,15649
511,-437,15648
511,-437,15646
511,-438,15644
511,-442,15644
511,-440,15644
511,-439,15641
511,-439,15638
511,-437,15896
256,-436,15895
256,-434,15896
256,-433,15638
511,-433,15638
511,-435,15635
511,-433,15635
511,-430,15632
511,-430,15632
511,-430,15631
511,-430,15630
511,-432,15626
511,-432,15628
511,-433,15628
511,-434,15627
511,-435,15627
511,-439,15627
511,-441,15627
511,-442,15627
511,-443,15623
511,-441,15622
511,-437,15621
511,-439,15623
511,-440,15624
511,-437,15623
511,-436,15625
511,-436,15625
511,-438,15626
511,-439,15627
511,-439,15627
511,-441,15631
511,-440,15632
511,-440,15631
511,-438,15629
511,-436,15626
511,-432,15629
511,-431,15632
511,-430,15635
511,-432,15635
511,-432,15638
511,-431,15639
511,-432,15638
511,-431,15637
511,-431,15635
511,-432,15637
511,-433,15895
256,-434,15897
256,-436,15899
256,-435,15900
256,-439,15901
256,-439,15645
511,-439,15903
256,-438,15899
256,-441,15896
256,-441,15640
511,-441,15642
511,-440,15640
511,-441,15639
511,-442,15640
511,-440,15642
511,-441,15641
511,-441,15639
511,-443,15639
511,-446,15637
511,-446,15638
511,-447,15638
511,-445,15638
511,-445,15636
511,-445,15637
511,-448,15637
511,-447,15636
511,-446,15892
256,-443,15892
256,-443,15892
256,-442,15893
256,-444,15892
256,-446,15887
256,-445,15886
256,-445,15885
256,-447,15885
256,-447,15629
511,-448,15633
511,-452,15635
511,-453,15631
511,-453,15626
511,-454,15628
511,-451,15632
511,-449,15630
511,-449,15627
511,-446,15627
511,-447,15627
511,-447,15627
511,-446,15630
511,-448,15629
511,-448,15627
511,-448,15625
511,-446,15624
511,-443,15626
511,-440,15625
511,-438,15627
511,-436,15626
511,-434,15626
511,-437,15626
511,-438,15622
511,-436,15620
511,-437,15617
511,-439,15618
511,-438,15619
511,-438,15620
511,-441,15622
511,-443,15624
511,-444,15622
511,-447,15624
511,-448,15624
511,-446,15625
511,-447,15628
511,-448,15627
511,-447,15626
511,-445,15626
511,-446,15631
511,-444,15632
511,-447,15628
511,-444,15625
511,-444,15626
511,-440,15630
511,-441,15631
511,-442,15631
511,-439,15633
511,-437,15633
511,-438,15632
511,-440,15631
511,-442,15632
511,-441,15632
511,-438,15634
511,-434,15636
511,-434,15638
511,-436,15637
511,-435,15637
511,-433,15635
511,-433,15635
511,-431,15631
511,-434,15633
511,-436,15631
511,-435,15630
511,-436,15628
511,-434,15631
511,-436,15631
511,-437,15632
511,-438,15631
511,-438,15632
511,-437,15630
511,-437,15630
511,-435,15632
511,-433,15633
511,-433,15632
511,-432,15632
511,-434,15628
511,-435,15629
511,-435,15630
511,-433,15630
511,-433,15631
511,-433,15630
511,-432,15630
511,-433,15628
511,-434,15626
511,-433,15627
511,-433,15627
511,-432,15626
511,-433,15626
511,-433,15628
511,-434,15631
511,-430,15629
511,-427,15632
511,-427,15632
511,-431,15634
511,-434,15633
511,-432,15635
511,-430,15635
511,-427,15638
511,-425,15639
511,-425,15637
511,-422,15636
511,-425,15636
511,-425,15635
511,-425,15635
511,-421,15636
511,-420,15635
511,-420,15638
511,-419,15640
511,-423,15639
511,-426,15638
511,-427,15636
511,-427,15634
511,-428,15634
511,-430,15638
511,-434,15637
511,-433,15636
511,-436,15638
511,-435,15637
511,-436,15635
511,-437,15634
511,-437,15637
511,-439,15636
511,-439,15634
511,-438,15633
511,-440,15631
511,-442,15628
511,-443,15630
511,-442,15626
511,-446,15629
511,-447,15632
511,-447,15632
511,-445,15631
511,-444,15629
511,-444,15630
511,-444,15632
511,-445,15633
511,-446,15633
511,-445,15634
511,-446,15633
511,-447,15635
511,-446,15637
511,-445,15633
511,-444,15631
511,-445,15631
511,-443,15630
511,-446,15628
511,-444,15626
511,-444,15624
511,-443,15623
511,-443,15623
511,-441,15624
511,-442,15629
511,-443,15627
511,-443,15627
511,-443,15626
511,-444,15626
511,-441,15625
511,-436,15625
511,-434,15627
511,-435,15628
511,-435,15630
511,-435,15628
511,-435,15626
511,-437,15630
511,-438,15631
511,-435,15631
511,-434,15633
511,-432,15633
511,-430,15635
511,-429,15634
511,-431,15633
511,-432,15635
511,-434,15636
511,-437,15634
511,-435,15632
511,-435,15888
256,-436,15888
256,-436,15631
511,-437,15631
511,-441,15635
511,-442,15637
511,-442,15636
511,-442,15636
511,-444,15635
511,-445,15631
511,-443,15631
511,-445,15634
511,-442,15635
511,-440,15636
511,-439,15635
511,-440,15637
511,-440,15640
511,-436,15641
511,-435,15642
511,-434,15645
511,-432,15642
511,-432,15642
511,-432,15644
511,-431,15643
511,-433,15901
256,-433,15900
256,-431,15900
256,-432,15899
256,-432,15899
256,-433,15898
256,-435,15641
511,-436,15637
511,-438,15632
511,-440,15888
256,-440,15634
511,-437,15634
511,-434,15634
511,-431,15888
256,-430,15634
511,-435,15633
511,-433,15633
511,-431,15888
256,-428,15632
511,-427,15631
511,-432,15632
511,-436,15631
511,-437,15628
511,-435,15630
511,-439,15634
511,-440,15634
511,-441,15632
511,-441,15628
511,-442,15627
511,-444,15626
511,-441,15625
511,-443,15626
511,-442,15629
511,-440,15628
511,-438,15631
511,-434,15632
511,-435,15630
511,-439,15631
511,-439,15633
511,-439,15634
511,-441,15635
511,-436,15633
511,-434,15634
511,-434,15633
511,-434,15632
511,-433,15631
511,-434,15631
511,-438,15633
511,-438,15631
511,-438,15628
511,-437,15630
511,-434,15633
511,-430,15634
511,-432,15635
511,-435,15634
511,-439,15634
511,-440,15634
511,-440,15633
511,-440,15637
511,-440,15634
511,-439,15633
511,-441,15628
511,-441,15628
511,-438,15630
511,-436,15634
511,-437,15633
511,-439,15635
511,-437,15637
511,-441,15636
511,-441,15635
511,-443,15638
511,-442,15640
511,-443,15639
511,-444,15638
511,-444,15635
511,-441,15634
511,-441,15635
511,-438,15639
511,-435,15639
511,-435,15640
511,-434,15640
511,-436,15640
511,-439,15640
511,-438,15642
511,-441,15640
511,-440,15637
511,-440,15635
511,-441,15636
511,-442,15637
511,-444,15633
511,-446,15631
511,-445,15632
511,-441,15630
511,-441,15633
511,-439,15631
511,-439,15632
511,-436,15633
511,-437,15633
511,-436,15631
511,-438,15630
511,-436,15628
511,-437,15630
511,-436,15631
511,-436,15633
511,-434,15635
511,-436,15635
511,-437,15636
511,-437,15635
511,-438,15631
511,-435,15634
511,-433,15635
511,-431,15640
511,-431,15642
511,-431,15643
511,-431,15642
511,-430,15643
511,-429,15641
511,-432,15636
511,-433,15635
511,-434,15636
511,-433,15634
511,-429,15634
511,-427,15891
256,-429,15637
511,-427,15890
256,-432,15887
256,-431,15884
256,-433,15884
256,-434,15885
256,-434,15884
256,-433,15628
511,-431,15629
511,-429,15628
511,-430,15881
256,-432,15624
511,-435,15624
511,-436,15880
256,-436,15878
256,-437,15880
256,-439,15626
511,-440,15626
511,-438,15630
511,-438,15888
256,-439,15632
511,-441,15633
511,-439,15633
511,-440,15632
511,-443,15634
511,-441,15634
511,-441,15632
511,-442,15630
511,-440,15630
511,-442,15628
511,-442,15627
511,-441,15629
511,-440,15629
511,-440,15630
511,-435,15633
511,-434,15631
511,-436,15633
511,-436,15890
256,-437,15888
256,-438,15632
511,-438,15632
511,-440,15629
511,-438,15631
511,-438,15634
511,-437,15636
511,-439,15635
511,-437,15641
511,-437,15641
511,-438,15641
511,-437,15643
511,-438,15647
511,-437,15649
511,-436,15649
511,-435,15649
511,-435,15650
511,-435,15649
511,-437,15647
511,-439,15645
511,-441,15643
511,-439,15645
511,-440,15644
511,-440,15641
511,-438,15642
511,-441,15642
511,-441,15641
511,-442,15638
511,-441,15636
511,-440,15636
511,-437,15892
256,-441,15891
256,-440,15892
256,-438,15892
256,-440,15890
256,-438,15890
256,-436,15632
511,-436,15631
511,-437,15634
511,-437,15634
511,-437,15632
511,-438,15634
511,-440,15636
511,-441,15635
511,-440,15633
511,-442,15633
511,-441,15636
511,-441,15638
511,-445,15636
511,-442,15638
511,-441,15635
511,-442,15636
511,-443,15639
511,-444,15638
511,-446,15636
511,-445,15892
256,-445,15892
256,-445,15889
256,-447,15887
256,-449,15885
256,-448,15884
256,-450,15882
256,-448,15886
256,-449,15631
511,-449,15632
511,-448,15889
256,-448,15635
511,-447,15637
511,-448,15634
511,-450,15632
511,-449,15631
511,-453,15629
511,-456,15634
511,-460,15634
511,-461,15632
511,-461,15633
511,-460,15635
511,-459,15637
511,-453,15636
511,-452,15637
511,-450,15638
511,-448,15639
511,-447,15638
511,-447,15639
511,-445,15635
511,-441,15632
511,-439,15630
511,-440,15631
511,-439,15628
511,-443,15625
511,-443,15624
511,-444,15624
511,-447,15622
511,-449,15626
511,-449,15626
511,-448,15626
511,-445,15627
511,-443,15627
511,-445,15629
511,-443,15628
511,-440,15629
511,-443,15630
511,-444,15629
511,-443,15629
511,-442,15631
511,-444,15634
511,-444,15631
511,-440,15629
511,-438,15630
511,-436,15629
511,-434,15630
511,-435,15627
511,-437,15627
511,-436,15627
511,-434,15627
511,-435,15628
511,-436,15630
511,-435,15627
511,-432,15630
511,-432,15627
511,-432,15631
511,-433,15633
511,-432,15632
511,-432,15634
511,-432,15633
511,-434,15635
511,-437,15635
511,-436,15636
511,-435,15637
511,-436,15637
511,-435,15636
511,-433,15635
511,-431,15635
511,-433,15634
511,-439,15637
511,-436,15637
511,-435,15636
511,-436,15635
511,-435,15638
511,-435,15641
511,-434,15643
511,-434,15644
511,-433,15646
511,-430,15643
511,-430,15640
511,-428,15893
256,-430,15896
256,-427,15899
256,-425,15641
511,-427,15638
511,-425,15638
511,-426,15638
511,-429,15638
511,-432,15639
511,-432,15640
511,-429,15639
511,-430,15639
511,-431,15637
511,-429,15634
511,-427,15632
511,-427,15630
511,-428,15631
511,-428,15629
511,-427,15628
511,-427,15628
511,-428,15629
511,-427,15630
511,-427,15629
511,-425,15628
511,-427,15626
511,-431,15628
511,-432,15630
511,-431,15629
511,-430,15633
511,-431,15634
511,-433,15632
511,-429,15631
511,-429,15628
511,-430,15629
511,-431,15885
256,-432,15884
256,-433,15886
256,-434,15631
511,-435,15631
511,-437,15636
511,-439,15631
511,-440,15628
511,-441,15630
511,-443,15632
511,-444,15632
511,-444,15633
511,-447,15632
511,-449,15632
511,-451,15632
511,-450,15632
511,-450,15629
511,-451,15888
256,-449,15888
256,-446,15888
256,-445,15888
256,-443,15889
256,-441,15889
256,-441,15888
256,-440,15889
256,-440,15887
256,-443,15886
256,-448,15891
256,-451,15891
256,-449,15891
256,-451,15894
256,-450,15895
256,-447,15896
256,-448,15895
256,-449,15897
256,-448,15896
256,-449,15898
256,-449,15898
256,-448,15900
256,-449,15903
256,-451,15905
256,-452,15906
256,-449,15904
256,-445,15904
256,-444,15902
256,-447,15900
256,-447,15900
256,-447,15899
256,-446,15898
256,-449,15895
256,-444,15897
256,-446,15638
511,-447,15636
511,-448,15635
511,-446,15637
511,-444,15638
511,-443,15638
511,-442,15893
256,-443,15895
256,-446,15642
511,-446,15644
511,-445,15643
511,-446,15644
511,-443,15646
511,-446,15647
511,-447,15648
511,-446,15648
511,-445,15651
511,-445,15647
511,-445,15645
511,-446,15901
256,-447,15901
256,-447,15899
256,-446,15899
256,-448,15899
256,-449,15902
256,-446,15905
256,-449,15908
256,-452,15651
511,-453,15906
256,-452,15903
256,-447,15903
256,-442,15902
256,-442,15903
256,-439,15902
256,-439,15646
511,-438,15649
511,-439,15652
511,-442,15652
511,-442,15655
511,-442,15655
511,-441,15651
511,-441,15651
511,-440,15652
511,-437,15653
511,-438,15651
511,-442,15652
511,-439,15649
511,-441,15651
511,-443,15651
511,-442,15650
511,-440,15648
511,-439,15644
511,-441,15645
511,-444,15646
511,-444,15647
511,-445,15648
511,-445,15646
511,-445,15645
511,-447,15643
511,-445,15647
511,-442,15647
511,-443,15643
511,-440,15642
511,-440,15641
511,-438,15639
511,-439,15641
511,-440,15639
511,-441,15637
511,-442,15634
511,-441,15635
511,-441,15633
511,-442,15633
511,-440,15636
511,-441,15643
511,-443,15643
511,-440,15642
511,-440,15643
511,-438,15642
511,-440,15639
511,-441,15639
511,-443,15638
511,-441,15637
511,-442,15638
511,-442,15635
511,-444,15635
511,-446,15635
511,-445,15635
511,-442,15634
511,-442,15636
511,-442,15637
511,-440,15633
511,-440,15629
511,-442,15627
511,-442,15630
511,-443,15631
511,-440,15633
511,-439,15630
511,-439,15630
511,-439,15629
511,-437,15627
511,-441,15630
511,-440,15626
511,-438,15624
511,-438,15625
511,-437,15623
511,-436,15626
511,-436,15627
511,-434,15628
511,-434,15629
511,-435,15629
511,-434,15628
511,-432,15627
511,-433,15629
511,-433,15631
511,-434,15633
511,-433,15635
511,-433,15633
511,-427,15634
511,-429,15635
511,-430,15635
511,-430,15638
511,-427,15639
511,-427,15640
511,-429,15640
511,-430,15640
511,-431,15640
511,-432,15641
511,-432,15637
511,-432,15639
511,-433,15637
511,-432,15635
511,-433,15636
511,-432,15636
511,-434,15639
511,-437,15638
511,-437,15891
256,-436,15634
511,-436,15633
511,-434,15634
511,-435,15637
511,-435,15637
511,-438,15638
511,-441,15891
256,-440,15634
511,-441,15632
511,-440,15631
511,-441,15626
511,-441,15882
256,-440,15621
