Ax,Ay,Az
-256,-424,15632
-1,-452,15681
-1,-473,15628
-1,-474,15635
-1,-442,15643
-1,-683,16109
-256,-437,15650
-1,-482,15876
-256,-448,15902
-256,-477,15629
-1,-452,15909
-256,-426,15625
-1,-475,15628
-1,-449,15887
-256,-459,15918
-256,-453,15650
-1,-466,15652
-1,-461,15903
-256,-481,15910
-256,-511,15893
-256,-470,15894
-256,-445,15897
-256,-460,15640
-1,-482,15656
-1,-511,15630
-1,-494,15637
-1,-454,15625
-1,-450,15656
-1,-469,15899
-256,-470,15622
-1,-431,15625
-1,-486,15647
-1,-500,15923
-256,-490,15909
-256,-462,15922
-256,-487,15918
-256,-496,15915
-256,-714,15858
-1,-711,16103
-256,-720,15868
-1,-690,15866
-1,-443,15640
-1,-420,15616
-1,-697,15850
-1,-695,15850
-1,-680,15845
-1,-685,15845
-1,-434,15618
-1,-704,15870
-1,-728,16107
-256,-725,15847
-1,-741,15853
-1,-475,15889
-256,-510,15626
-1,-745,15860
-1,-453,15631
-1,-435,15922
-256,-416,15683
-1,-457,15625
-1,-708,15852
-1,-466,15652
-1,-459,15636
-1,-455,15632
-1,-449,15674
-1,-422,15632
-1,-679,16124
-256,-691,16109
-256,-467,15666
-1,-472,15646
-1,-713,16102
-256,-724,15867
-1,-488,15617
-1,-709,15862
-1,-715,15870
-1,-425,15650
-1,-425,15915
-256,-459,15660
-1,-453,15630
-1,-491,15669
-1,-450,15669
-1,-442,15657
-1,-429,15677
-1,-416,15643
-1,-423,15618
-1,-440,15908
-256,-446,15923
-256,-671,16106
-256,-421,15897
-256,-735,15861
-1,-468,15891
-256,-470,15641
-1,-464,15649
-1,-438,15653
-1,-698,15867
-1,-722,15865
-1,-472,15618
-1,-458,15627
-1,-443,15638
-1,-678,15863
-1,-712,15861
-1,-435,15645
-1,-718,15847
-1,-706,16120
-256,-450,15627
-1,-730,15847
-1,-462,15648
-1,-459,15639
-1,-459,15640
-1,-462,15666
-1,-499,15640
-1,-446,15628
-1,-432,15649
-1,-422,15886
-256,-434,15926
-256,-479,15927
-256,-496,15911
-256,-433,15909
-256,-434,15903
-256,-426,15913
-256,-694,15856
-1,-715,15868
-1,-668,15863
-1,-475,15632
-1,-464,15629
-1,-419,15639
-1,-698,16114
-256,-725,15862
-1,-487,15634
-1,-434,15667
-1,-427,15623
-1,-465,15633
-1,-444,15635
-1,-449,15629
-1,-458,15647
-1,-447,15664
-1,-414,15674
-1,-441,15666
-1,-707,15867
-1,-505,15622
-1,-458,15623
-1,-446,15643
-1,-479,15647
-1,-434,15653
-1,-454,15673
-1,-422,15666
-1,-447,15642
-1,-485,15653
-1,-480,15624
-257,-534,15840
-1,-725,15854
-1,-697,15869
-1,-471,15638
-1,-412,15899
-256,-463,15644
-1,-661,15860
-1,-709,15849
-1,-468,15624
-1,-466,15660
-1,-467,15645
-1,-707,16112
-256,-674,16126
-256,-689,15828
-1,-697,15854
-1,-717,16110
-256,-742,16122
-256,-430,15896
-256,-470,15631
-1,-454,15643
-1,-467,15673
-1,-449,15650
-1,-708,15859
-1,-662,15871
-1,-702,15848
-1,-466,15631
-1,-435,15650
-1,-427,15634
-1,-440,15622
-1,-687,16120
-256,-691,16106
-256,-495,15630
-1,-480,15671
-1,-496,15894
-256,-744,16122
-256,-751,16126
-256,-461,15627
-1,-456,15904
-256,-448,15645
-1,-710,16111
-256,-707,16126
-256,-454,15621
-1,-487,15875
-256,-761,16125
-256,-719,15865
-1,-479,15625
-1,-695,15864
-1,-432,15893
-256,-448,15645
-1,-449,15624
-1,-691,15845
-1,-688,15835
-1,-442,15623
-1,-452,15633
-1,-489,15629
-1,-464,15644
-1,-477,15669
-1,-433,15648
-1,-416,15643
-1,-667,16111
-256,-462,15620
-1,-724,15862
-1,-446,15882
-256,-467,15706
-1,-474,15647
-1,-453,15901
-256,-455,15639
-1,-453,15640
-1,-449,15660
-1,-413,15645
-1,-690,15856
-1,-455,15648
-1,-483,15645
-1,-448,15662
-1,-406,15920
-256,-440,15884
-256,-436,15886
-256,-454,15891
-256,-479,15620
-1,-419,15640
-1,-408,15628
-1,-431,15622
-1,-451,15878
-256,-463,15877
-256,-438,15638
-1,-457,15665
-1,-449,15673
-1,-459,15656
-1,-478,15646
-1,-746,15871
-1,-478,15623
-1,-424,15659
-1,-429,15634
-1,-463,15961
-256,-489,15676
-1,-457,15645
-1,-623,15864
-1,-428,15628
-1,-735,15867
-1,-424,15621
-1,-418,15875
-256,-438,15645
-1,-429,15662
-1,-458,15658
-1,-755,15850
-1,-693,15862
-1,-449,15620
-1,-424,15890
-256,-418,15668
-1,-435,15652
-1,-729,15851
-1,-735,15837
-1,-463,15879
-256,-688,15844
-1,-399,15631
-1,-459,15621
-1,-457,15631
-1,-459,15880
-256,-475,15647
-1,-439,15624
-1,-421,15650
-1,-437,15689
-1,-455,15616
-1,-708,15840
-1,-719,15844
-1,-704,15849
-1,-687,15863
-1,-476,15631
-1,-469,15644
-1,-461,15633
-1,-445,15655
-1,-718,15862
-1,-725,15864
-1,-498,15632
-1,-471,15626
-1,-724,15866
-1,-722,15869
-1,-404,15652
-1,-436,15896
-256,-736,15868
-1,-720,15858
-1,-719,15847
-1,-507,15620
-1,-498,15647
-1,-504,15628
-1,-443,15899
-256,-473,15647
-1,-696,15843
-1,-699,16120
-256,-448,15883
-256,-469,15634
-1,-488,15630
-1,-452,15884
-256,-484,15888
-512,-527,16118
-256,-472,15637
-1,-699,15862
-1,-677,16124
-256,-458,15622
-1,-752,15871
-1,-477,15617
-1,-441,15915
-256,-430,15629
-1,-437,15655
-1,-415,15649
-1,-435,15946
-256,-502,15909
-256,-470,15896
-512,-521,16094
-256,-496,15629
-1,-751,15864
-1,-713,15853
-1,-703,15857
-1,-686,15864
-1,-429,15664
-1,-450,15688
-1,-427,15643
-1,-457,15890
-256,-457,15643
-1,-747,15850
-1,-747,15856
-1,-731,15858
-1,-718,15858
-1,-711,15852
-1,-462,15935
-256,-458,15670
-1,-482,15923
-256,-472,15667
-1,-453,15674
-1,-464,15644
-1,-705,15866
-1,-696,16122
-256,-432,15635
-1,-722,15871
-1,-701,16113
-256,-711,16058
-256,-447,15616
-1,-460,15642
-1,-453,15629
-1,-464,15632
-1,-728,15852
-1,-708,15821
-1,-457,15900
-256,-441,15922
-256,-504,15627
-1,-684,16115
-256,-420,15909
-256,-502,15673
-1,-498,15633
-1,-706,15870
-1,-451,15646
-1,-474,15644
-1,-738,15871
-1,-436,15629
-1,-713,15853
-1,-439,15618
-1,-449,15637
-1,-454,15901
-256,-462,15892
-256,-707,16102
-256,-486,15621
-1,-426,15641
-1,-457,15667
-1,-430,15672
-1,-409,15933
-256,-439,15616
-1,-678,15857
-1,-425,15616
-1,-444,15625
-1,-444,15890
-256,-449,15624
-1,-710,15870
-1,-469,15648
-1,-449,15671
-1,-438,15621
-1,-716,15859
-1,-708,15838
-1,-669,16090
-256,-478,15625
-1,-450,15657
-1,-473,15634
-1,-442,15637
-1,-471,15670
-1,-460,15877
-256,-411,15691
-1,-402,15644
-1,-466,15906
-256,-494,15648
-1,-467,15654
-1,-410,15882
-256,-439,15885
-256,-668,16109
-256,-706,16108
-256,-678,16126
-256,-455,15896
-256,-714,15862
-1,-744,16127
-256,-473,15904
-256,-464,15872
-256,-443,15875
-256,-760,15870
-1,-468,15628
-1,-502,15651
-1,-453,15653
-1,-475,15654
-1,-436,15660
-1,-499,15903
-256,-486,15628
-1,-482,15636
-1,-453,15617
-1,-679,15844
-1,-427,15648
-1,-451,15646
-1,-485,15645
-1,-453,15889
-256,-431,15910
-256,-410,15646
-1,-419,15616
-1,-710,16123
-256,-410,15620
-1,-448,15621
-1,-454,15634
-1,-719,16120
-256,-716,16124
-256,-478,15887
-256,-447,15630
-1,-454,15624
-1,-431,15618
-1,-417,15881
-256,-457,15887
-256,-689,15859
-1,-654,15869
-1,-410,15621
-1,-444,15634
-1,-433,15629
-1,-717,15871
-1,-700,16123
-256,-469,15908
-256,-449,15646
-1,-427,15877
-256,-710,15848
-1,-444,15640
-1,-431,15638
-1,-401,15635
-1,-419,15638
-1,-453,15630
-1,-411,15883
-256,-683,15860
-1,-431,15625
-1,-445,15643
-1,-459,15655
-1,-451,15639
-1,-447,15643
-1,-454,15910
-256,-704,15864
-1,-433,15623
-1,-446,15626
-1,-450,15657
-1,-445,15628
-1,-504,15628
-1,-743,15839
-1,-768,15837
-1,-445,15641
-1,-430,15903
-256,-705,15835
-1,-714,16109
-256,-435,15631
-1,-441,15907
-256,-474,15900
-256,-474,15654
-1,-459,15618
-257,-513,15832
-1,-730,15846
-1,-742,15864
-1,-729,15867
-1,-500,15622
-1,-721,15861
-1,-447,15622
-1,-503,15628
-257,-257,15643
-1,-499,15645
-1,-507,15906
-256,-455,15879
-256,-474,15627
-1,-693,16125
-256,-468,15616
-1,-766,15849
-1,-465,15631
-1,-439,15631
-1,-412,15656
-1,-449,15956
-256,-436,15890
-256,-693,16109
-256,-440,15625
-1,-491,15668
-257,-258,15625
-1,-498,15637
-1,-441,15626
-1,-439,15626
-1,-465,15652
-1,-431,15627
-1,-478,15906
-256,-439,15618
-1,-696,15857
-1,-474,15661
-1,-481,15635
-1,-683,15867
-1,-705,16115
-256,-751,15860
-1,-728,15868
-1,-495,15632
-1,-426,15629
-1,-757,15870
-1,-738,16121
-256,-462,15632
-1,-473,15678
-1,-462,15920
-256,-431,15903
-256,-455,15623
-1,-745,15853
-1,-466,15631
-1,-426,15630
-1,-473,15625
-1,-487,15644
-1,-495,15639
-1,-697,15854
-1,-445,15633
-1,-746,15870
-1,-728,16124
-256,-480,15872
-256,-476,15923
-256,-464,15679
-1,-465,15877
-256,-473,15662
-1,-710,15871
-1,-717,15811
-1,-682,15865
-1,-650,15866
-1,-431,15649
-1,-453,15623
-1,-437,15659
-1,-426,15636
-1,-438,15619
-1,-713,15869
-1,-457,15632
-1,-479,15622
-1,-723,15863
-1,-707,15835
-1,-437,15930
-256,-478,15942
-256,-476,15890
-256,-739,15833
-1,-711,16094
-256,-738,15835
-1,-735,15844
-1,-735,15830
-1,-715,15821
-1,-728,16123
-256,-705,15864
-1,-460,15641
-1,-459,15661
-1,-477,15875
-256,-418,15618
-1,-406,15629
-1,-453,15635
-1,-426,15647
-1,-404,15643
-1,-419,15649
-1,-471,15656
-1,-461,15661
-1,-425,15651
-1,-423,15675
-1,-450,15641
-1,-672,15851
-1,-429,15625
-1,-461,15643
-1,-719,16123
-256,-741,16114
-256,-444,15671
-1,-421,15898
-256,-446,15664
-1,-455,15899
-256,-470,15658
-1,-442,15644
-256,-428,15645
-1,-483,15628
-1,-492,15626
-1,-453,15641
-1,-730,15848
-1,-734,16125
-256,-456,15902
-256,-427,15897
-256,-441,15648
-1,-464,15914
-256,-440,15631
-1,-393,15618
-1,-452,15670
-1,-437,15647
-1,-736,15868
-1,-460,15638
-1,-463,15627
-1,-481,15901
-256,-489,15643
-1,-490,15652
-1,-482,15641
-1,-459,15619
-1,-474,15896
-256,-448,15904
-256,-458,15874
-256,-749,16088
-256,-715,16076
-256,-738,15828
-257,-273,15875
-256,-482,15901
-256,-437,15896
-256,-401,15619
-1,-436,15618
-1,-738,16114
-256,-431,15896
-256,-424,15629
-1,-459,15656
-1,-473,15636
-1,-437,15662
-1,-429,15658
-1,-476,15617
-1,-739,15843
-257,-515,15857
-1,-716,15847
-1,-450,15620
-1,-731,16116
-256,-452,15894
-256,-686,15860
-1,-713,15848
-1,-696,16079
-256,-722,15848
-1,-475,15898
-256,-434,15875
-256,-714,16121
-256,-447,15872
-256,-440,15642
-1,-439,15661
-1,-417,15661
-1,-387,15670
-1,-433,15673
-1,-423,15648
-1,-449,15636
-1,-713,15863
-1,-739,15861
-1,-453,15890
-256,-426,15632
-1,-699,15856
-1,-698,15852
-1,-726,15859
-1,-694,15868
-1,-468,15653
-256,-442,15673
-1,-432,15642
-1,-442,15632
-1,-452,15632
-1,-460,15649
-1,-500,15645
-1,-495,15880
-256,-482,15900
-256,-510,15630
-1,-768,15871
-1,-463,15657
-1,-705,15865
-1,-453,15645
-1,-453,15638
-1,-457,15883
-256,-466,15621
-1,-450,15658
-1,-440,15637
-1,-449,15676
-1,-450,15626
-1,-461,15620
-1,-693,15867
-1,-490,15639
-1,-737,15853
-1,-689,15844
-1,-685,15839
-1,-438,15622
-1,-447,15625
-1,-450,15650
-1,-472,15888
-256,-749,16125
-256,-443,15626
-1,-681,15848
-1,-432,15620
-1,-408,15638
-1,-409,15646
-1,-427,15622
-1,-439,15648
-1,-425,15656
-1,-471,15637
-1,-468,15618
-1,-414,15641
-1,-424,15929
-256,-408,15903
-256,-719,16117
-256,-747,16102
-256,-728,15853
-1,-452,15877
-256,-680,16080
-256,-438,15622
-1,-427,15637
-1,-449,15637
-1,-502,15631
-1,-465,15646
-1,-454,15623
-1,-456,15632
-1,-479,15630
-1,-491,15637
-1,-745,16122
-256,-728,15867
-1,-487,15631
-1,-750,15864
-1,-450,15616
-1,-501,15880
-256,-466,15635
-1,-484,15630
-1,-472,15631
-1,-476,15649
-1,-465,15625
-1,-682,16126
-256,-440,15878
-256,-469,15915
-256,-438,15633
-1,-405,15874
-256,-663,15849
-1,-672,15818
-1,-718,16104
-256,-457,15633
-1,-453,15900
-256,-718,15870
-1,-402,15630
-1,-404,15634
-1,-421,15626
-1,-698,15868
-1,-439,15908
-256,-451,15651
-1,-504,15638
-1,-479,15898
-256,-716,15861
-1,-767,15839
-1,-709,15871
-1,-451,15626
-1,-727,16120
-256,-444,15898
-256,-430,15654
-1,-688,15839
-1,-707,16107
-256,-476,15627
-1,-454,15688
-1,-481,15911
-256,-685,16125
-256,-425,15650
-1,-442,15910
-256,-495,15899
-256,-713,16108
-256,-705,15850
-1,-728,15851
-1,-709,15851
-1,-434,15618
-1,-439,15921
-256,-472,15660
-1,-460,15671
-1,-435,15627
-1,-693,15862
-1,-728,16122
-256,-439,15642
-1,-485,15896
-256,-477,15635
-1,-496,15644
-1,-491,15619
-1,-424,15893
-256,-718,16127
-256,-471,15884
-256,-738,16108
-256,-444,15655
-1,-738,15862
-1,-750,15869
-1,-476,15618
-1,-416,15640
-1,-457,15652
-1,-449,15634
-1,-704,15844
-1,-697,15817
-1,-706,15792
-1,-728,16110
-256,-486,15906
-256,-453,15632
-1,-687,16127
-256,-435,15897
-256,-475,15922
-256,-408,15911
-256,-671,16120
-256,-480,15906
-256,-470,15625
-1,-723,16112
-256,-462,15623
-1,-673,15867
-1,-438,15640
-1,-471,15654
-1,-737,16118
-256,-414,15618
-1,-428,15892
-256,-469,15637
-1,-439,15623
-1,-445,15631
-1,-449,15920
-256,-475,15898
-256,-763,15869
-1,-459,15653
-1,-492,15903
-256,-766,15870
-1,-481,15648
-1,-744,15870
-1,-479,15639
-1,-474,15663
-1,-490,15651
-1,-473,15658
-1,-487,15634
-257,-258,15652
-1,-449,15691
-1,-461,15660
-1,-464,15620
-1,-720,15867
-1,-723,15854
-1,-688,15871
-1,-757,15834
-1,-725,15862
-1,-451,15617
-1,-441,15655
-1,-469,15654
-1,-460,15633
-1,-709,15865
-1,-739,16113
-256,-706,15851
-1,-705,15860
-1,-745,16087
-256,-747,16126
-256,-471,15924
-256,-457,15651
-1,-697,15866
-1,-446,15637
-1,-438,15648
-1,-451,15629
-1,-459,15910
-256,-679,15870
-1,-452,15622
-1,-688,15849
-1,-436,15872
-256,-697,15842
-1,-459,15628
-1,-451,15628
-1,-476,15616
-1,-436,15627
-1,-687,15866
-1,-441,15634
-1,-477,15895
-256,-485,15636
-1,-696,15866
-1,-439,15888
-256,-455,15873
-256,-708,16104
-256,-689,15852
-1,-463,15656
-1,-456,15656
-1,-482,15632
-1,-465,15895
-256,-712,16113
-256,-434,15620
-1,-458,15634
-1,-433,15635
-1,-480,15618
-1,-480,15619
-1,-480,15644
-1,-480,15669
-1,-489,15619
-1,-441,15641
-1,-472,15641
-1,-438,15905
-256,-469,15655
-1,-467,15658
-1,-420,15873
-256,-441,15634
-1,-446,15619
-1,-436,15631
-1,-487,15634
-1,-476,15650
-1,-456,15644
-1,-676,15870
-1,-423,15910
-256,-444,15671
-1,-432,15902
-256,-501,15913
-256,-488,15881
-256,-457,15642
-1,-702,15858
-1,-688,15870
-1,-451,15646
-1,-462,15634
-1,-441,15879
-256,-426,15881
-256,-669,15828
-1,-729,15843
-1,-761,15850
-1,-730,16117
-256,-704,15837
-1,-752,15864
-1,-720,15863
-1,-716,15860
-1,-447,15620
-1,-688,15858
-1,-738,15863
-1,-757,15860
-1,-509,15627
-1,-497,15623
-1,-471,15632
-1,-733,15850
-1,-479,15898
-256,-461,15657
-1,-471,15643
-1,-461,15639
-1,-693,15867
-1,-685,15868
-1,-420,15629
-1,-696,15870
-1,-639,16114
-256,-416,15623
-1,-452,15661
-1,-432,15636
-1,-490,15648
-1,-485,15641
-257,-265,15642
-1,-489,15620
-1,-705,15860
-1,-662,15864
-1,-457,15878
-256,-475,15622
-1,-487,15895
-256,-437,15913
-256,-491,15895
-256,-462,15907
-256,-461,15898
-256,-438,15650
-1,-701,15857
-1,-469,15888
-256,-460,15900
-256,-469,15888
-256,-472,15651
-1,-464,15633
-1,-435,15631
-1,-456,15672
-1,-431,15652
-1,-679,15859
-1,-445,15641
-1,-456,15625
-1,-447,15873
-256,-717,15849
-1,-435,15625
-1,-452,15895
-256,-435,15645
-1,-449,15623
-1,-486,15635
-1,-699,16113
-256,-410,15631
-1,-452,15899
-256,-461,15618
-1,-709,15855
-1,-442,15893
-256,-479,15635
-1,-722,15826
-1,-466,15626
-1,-449,15621
-1,-441,15636
-1,-455,15625
-1,-706,15851
-1,-702,15868
-1,-701,15862
-1,-500,15643
-1,-472,15671
-1,-444,15638
-1,-449,15894
-256,-435,15626
-1,-439,15889
-256,-427,15918
-256,-645,16114
-256,-679,16125
-256,-440,15910
-256,-467,15918
-256,-437,15892
-256,-442,15887
-256,-694,16124
-256,-461,15626
-1,-484,15639
-1,-495,15644
-1,-484,15671
-1,-454,15898
-256,-425,15907
-256,-455,15878
-256,-460,15618
-1,-697,16097
-256,-686,16117
-256,-408,15903
-256,-464,15637
-1,-459,15918
-256,-446,15878
-256,-711,15867
-1,-684,16113
-256,-671,16124
-256,-444,15904
-256,-459,15639
-1,-441,15896
-256,-427,15880
-256,-428,15895
-256,-434,15626
-1,-487,15617
-1,-491,15623
-1,-458,15629
-1,-497,15923
-256,-721,16120
-256,-462,15640
-1,-475,15887
-256,-732,15848
-1,-422,15641
-1,-688,15868
-1,-433,15619
-1,-438,15655
-1,-464,15676
-1,-463,15648
-1,-469,15630
-1,-753,15859
-1,-449,15641
-1,-423,15637
-1,-702,15845
-1,-663,15849
-1,-425,15921
-256,-445,15938
-256,-451,15671
-1,-504,15622
-1,-479,15924
-256,-448,15648
-1,-693,16117
-256,-452,15915
-256,-495,15917
-256,-494,15690
-1,-495,15679
-1,-507,15888
-256,-480,15671
-1,-475,15630
-1,-462,15623
-1,-466,15908
-256,-468,15627
-1,-457,15636
-1,-717,16122
-256,-722,15859
-1,-479,15620
-1,-441,15621
-1,-696,15868
-1,-451,15900
-256,-447,15650
-1,-481,15900
-256,-448,15903
-256,-466,15893
-256,-486,15904
-256,-454,15631
-1,-488,15620
-1,-746,15821
-1,-711,16107
-256,-701,16124
-256,-703,16106
-256,-708,16126
-256,-681,15858
-1,-724,15871
-1,-725,15840
-1,-710,15826
-1,-725,15860
-1,-451,15645
-1,-451,15616
-1,-741,15858
-1,-479,15702
-1,-444,15669
-1,-468,15650
-1,-508,15925
-256,-488,15887
-256,-475,15663
-1,-476,15698
-1,-464,15643
-1,-751,16127
-256,-475,15872
-256,-434,15874
-256,-458,15640
-1,-425,15641
-1,-720,15871
-1,-697,15870
-1,-447,15620
-1,-433,15638
-1,-447,15636
-1,-678,15856
-1,-430,15630
-1,-445,15626
-1,-733,15869
-1,-494,15649
-1,-430,15895
-256,-450,15639
-1,-464,15626
-1,-434,15657
-1,-446,15616
-1,-445,15914
-256,-462,15884
-256,-441,15899
-256,-460,15659
-1,-472,15875
-256,-660,15846
-1,-431,15681
-1,-463,15625
-1,-667,15805
-1,-677,15867
-1,-429,15619
-1,-736,16114
-256,-721,16116
-256,-497,15631
-1,-441,15875
-256,-442,15643
-1,-429,15910
-256,-450,15897
-256,-428,15891
-256,-447,15633
-1,-747,15867
-1,-747,16114
-256,-737,16080
-256,-733,15868
-1,-478,15898
-256,-482,15621
-1,-437,15903
-256,-408,15663
-1,-695,15853
-1,-646,15870
-1,-678,15867
-1,-403,15636
-1,-438,15902
-256,-426,15628
-1,-693,15867
-1,-436,15636
-1,-675,15871
-1,-477,15616
-1,-467,15634
-1,-433,15879
-256,-710,16117
-256,-489,15645
-1,-473,15645
-1,-676,15856
-1,-478,15624
-1,-451,15619
-1,-484,15658
-257,-258,15640
-1,-457,15872
-256,-721,16127
-256,-695,16123
-256,-443,15884
-256,-404,15665
-1,-442,15881
-256,-743,16109
-256,-504,15939
-256,-499,15902
-256,-485,15891
-256,-690,15862
-1,-438,15622
-1,-417,15892
-256,-449,15620
-1,-463,15661
-1,-746,15862
-1,-747,15863
-1,-458,15889
-256,-704,16124
-256,-703,15864
-1,-436,15873
-256,-457,15630
-1,-434,15638
-1,-461,15631
-1,-464,15660
-1,-464,15620
-1,-466,15903
-256,-442,15636
-1,-693,15871
-1,-459,15619
-1,-430,15618
-1,-474,15880
-256,-461,15914
-256,-457,15630
-1,-467,15652
-1,-451,15661
-1,-435,15946
-256,-448,15659
-1,-474,15635
-1,-763,15867
-1,-460,15636
-1,-475,15640
-1,-450,15660
-1,-423,15921
-256,-426,15915
-256,-690,15864
-1,-466,15915
-256,-730,16115
-256,-480,15874
-256,-439,15621
-1,-445,15664
-1,-482,15971
-256,-733,16111
-256,-705,15865
-1,-458,15660
-1,-433,15672
-1,-446,15627
-1,-412,15930
-256,-698,15838
-1,-706,15833
-1,-702,15859
-1,-412,15899
-256,-425,15623
-1,-438,15906
-256,-426,15626
-1,-424,15885
-256,-445,15670
-1,-472,15646
-257,-277,15622
-1,-490,15648
-1,-469,15627
-1,-748,16127
-256,-472,15879
-256,-416,15891
-256,-717,15850
-1,-439,15623
-1,-485,15656
-1,-465,15637
-1,-488,15621
-1,-482,15892
-256,-690,16120
-256,-434,15872
-256,-445,15641
-1,-453,15618
-1,-709,15827
-1,-459,15637
-1,-421,15643
-1,-435,15881
-256,-757,15867
-1,-739,15868
-1,-475,15622
-1,-407,15881
-256,-389,15896
-256,-418,15637
-1,-449,15895
-256,-443,15682
-1,-462,15659
-1,-491,15664
-1,-426,15638
-1,-465,15879
-256,-444,15637
-1,-463,15627
-1,-465,15664
-1,-471,15630
-1,-437,15631
-1,-441,15648
-1,-453,15643
-1,-719,16123
-256,-757,16119
-256,-453,15874
-256,-684,15848
-1,-719,15869
-1,-463,15625
-1,-720,15859
-1,-725,16097
-256,-704,16121
-256,-458,15899
-256,-463,15878
-256,-408,15652
-1,-466,15622
-1,-451,15637
-1,-506,15647
-1,-719,15851
-1,-731,15871
-1,-438,15661
-1,-437,15918
-256,-440,15652
-1,-677,15862
-1,-690,16123
-256,-445,15899
-256,-420,15906
-256,-479,15650
-1,-459,15657
-1,-442,15620
-1,-475,15618
-1,-721,15868
-1,-703,15864
-1,-439,15659
-1,-477,15669
-1,-488,15650
-1,-747,15863
-1,-488,15628
-257,-267,15655
-1,-495,15930
-256,-453,15662
-1,-727,15866
-1,-730,16110
-256,-737,15867
-1,-432,15929
-256,-477,15887
-256,-437,15891
-256,-443,15888
-256,-458,15656
-1,-462,15887
-256,-725,16118
-256,-682,15861
-1,-675,15864
-1,-419,15879
-256,-430,15884
-256,-493,15927
-256,-729,16120
-256,-461,15640
-1,-447,15653
-1,-443,15635
-1,-475,15631
-1,-732,15851
-1,-736,15866
-1,-732,15828
-1,-744,15864
-1,-492,15646
-1,-481,15914
-256,-471,15686
-1,-425,15665
-1,-439,15661
-1,-432,15901
-256,-427,15634
-1,-438,15621
-1,-484,15631
-1,-451,15619
-1,-449,15639
-1,-455,15630
-1,-723,16109
-256,-718,16127
-256,-687,15862
-1,-706,16121
-256,-456,15641
-1,-489,15657
-1,-456,15649
-1,-434,15634
-1,-700,15835
-1,-700,15869
-1,-470,15653
-1,-470,15639
-1,-419,15636
-1,-704,15852
-1,-463,15899
-256,-710,16095
-256,-723,16086
-256,-755,16103
-256,-472,15916
-256,-465,15921
-256,-706,16123
-256,-724,15841
-1,-736,16125
-256,-477,15652
-1,-691,16123
-256,-443,15897
-256,-465,15670
-1,-439,15908
-256,-472,15893
-256,-451,15630
-1,-392,15628
-1,-426,15640
-1,-707,15855
-1,-690,15827
-1,-689,16092
-256,-689,16093
-256,-461,15884
-256,-456,15884
-256,-714,16124
-256,-718,15843
-1,-426,15879
-256,-728,15827
-1,-445,15622
-1,-470,15897
-256,-511,15625
-1,-474,15628
-1,-477,15636
-1,-450,15629
-1,-696,15869
-1,-440,15874
-256,-434,15912
-256,-451,15915
-256,-441,15896
-256,-475,15888
-256,-467,15634
-1,-452,15641
-1,-700,15861
-1,-683,15871
-1,-708,15865
-1,-426,15643
-1,-439,15894
-256,-494,15889
-256,-455,15875
-256,-689,15861
-1,-683,16103
-256,-454,15900
-256,-431,15651
-1,-442,15634
-1,-440,15677
-1,-456,15893
-256,-490,15896
-256,-470,15897
-256,-488,15872
-256,-727,16127
-256,-463,15898
-256,-715,16092
-256,-688,15862
-1,-702,15869
-1,-735,16106
-256,-716,16110
-256,-452,15886
-256,-447,15660
-1,-456,15626
-1,-702,15864
-1,-469,15620
-1,-432,15646
-1,-424,15639
-1,-456,15681
-1,-455,15640
-1,-426,15624
-1,-694,15868
-1,-731,15857
-1,-492,15657
-1,-511,15634
-1,-496,15886
-256,-450,15885
-256,-730,15859
-1,-465,15634
-1,-445,15638
-1,-449,15631
-1,-444,15625
-1,-712,15836
-1,-453,15885
-256,-470,15636
-1,-647,15856
-1,-392,15630
-1,-437,15643
-1,-449,15896
-256,-425,15880
-256,-689,16114
-256,-469,15880
-256,-439,15889
-256,-439,15617
-1,-478,15890
-256,-510,15905
-256,-746,16118
-256,-472,15895
-256,-468,15634
-1,-442,15619
-1,-702,15854
-1,-463,15886
-256,-671,16121
-256,-716,16115
-256,-714,15864
-1,-461,15669
-1,-436,15904
-256,-439,15876
-256,-442,15622
-1,-439,15874
-256,-446,15628
-1,-757,15866
-1,-752,15845
-1,-484,15617
-1,-711,15862
-1,-408,15642
-1,-488,15661
-1,-460,15651
-1,-467,15636
-1,-459,15882
-256,-448,15635
-1,-718,16126
-256,-431,15903
-256,-429,15913
-256,-459,15668
-1,-475,15937
-256,-469,15916
-256,-461,15622
-1,-444,15896
-256,-460,15891
-256,-448,15915
-256,-479,15907
-256,-443,15883
-256,-674,15869
-1,-438,15620
-1,-435,15617
-1,-422,15898
-256,-466,15903
-256,-492,15651
-1,-506,15628
-257,-262,15895
-256,-469,15902
-256,-462,15891
-256,-473,15636
-1,-470,15637
-1,-468,15627
-1,-722,16120
-256,-723,16116
-512,-275,15905
-512,-276,15670
-1,-494,15642
-1,-487,15678
-1,-475,15949
-256,-487,15655
-1,-492,15632
-1,-465,15876
-256,-481,15877
-256,-470,15876
-256,-465,15887
-256,-704,16112
-256,-489,15616
-1,-477,15622
-1,-492,15684
-1,-489,15645
-1,-443,15901
-256,-435,15623
-1,-450,15878
-256,-459,15880
-256,-453,15898
-256,-427,15895
-256,-430,15880
-256,-464,15641
-1,-458,15632
-1,-425,15631
-1,-468,15640
-1,-496,15884
-256,-439,15622
-1,-705,15862
-1,-724,15851
-1,-726,15871
-1,-449,15636
-1,-460,15617
-1,-475,15889
-256,-731,16111
-256,-737,15865
-1,-668,15859
-1,-659,15865
-1,-442,15649
-1,-714,16126
-256,-718,16106
-256,-704,16114
-256,-449,15646
-1,-492,15651
-1,-470,15903
-256,-451,15616
-1,-507,15650
-1,-495,15908
-512,-257,15668
-1,-472,15626
-1,-715,15857
-1,-740,16111
-256,-458,15901
-256,-479,15666
-1,-478,15645
-1,-746,15871
-1,-490,15618
-1,-711,15868
-1,-414,15630
-1,-451,15885
-256,-441,15919
-256,-464,15664
-1,-431,15669
-1,-441,15629
-1,-436,15624
-1,-446,15622
-1,-719,15860
-1,-709,15864
-1,-407,15892
-256,-638,15840
-1,-445,15620
-1,-456,15874
-256,-724,16123
-256,-469,15894
-256,-469,15629
-1,-448,15635
-1,-442,15683
-1,-439,15901
-256,-473,15630
-1,-441,15903
-256,-473,15641
-1,-475,15658
-1,-436,15883
-256,-425,15642
-1,-453,15917
-256,-492,15897
-256,-456,15618
-1,-441,15874
-256,-426,15643
-1,-453,15896
-256,-474,15619
-1,-728,16091
-256,-471,15622
-1,-707,16107
-256,-427,15872
-256,-429,15934
-256,-465,15635
-1,-453,15641
-1,-436,15901
-256,-445,15618
-1,-705,15865
-1,-458,15640
-1,-415,15915
-256,-455,15644
-1,-449,15676
-1,-453,15653
-1,-716,16118
-256,-433,15903
-256,-506,15619
-1,-501,15898
-256,-434,15890
-256,-431,15667
-1,-457,15648
-1,-500,15649
-1,-471,15887
-256,-434,15646
-1,-699,15857
-1,-445,15634
-1,-436,15887
-256,-437,15629
-1,-706,15850
-1,-729,15857
-1,-456,15634
-1,-440,15623
-1,-429,15625
-1,-459,15621
-1,-495,15624
-1,-439,15633
-1,-727,16120
-256,-704,16115
-256,-452,15898
-256,-459,15875
-256,-442,15651
-1,-443,15909
-256,-484,15915
-256,-498,15913
-256,-485,15899
-256,-505,15878
-256,-751,16097
-256,-725,16111
-256,-703,15867
-1,-710,16115
-256,-436,15903
-256,-458,15625
-1,-459,15624
-1,-713,15869
-1,-440,15889
-256,-422,15886
-256,-430,15909
-256,-448,15891
-256,-685,15850
-1,-728,15840
-1,-453,15621
-1,-487,15640
-1,-717,16126
-256,-467,15881
-256,-480,15872
-256,-459,15660
-1,-476,15907
-256,-499,15875
-512,-261,15622
-1,-466,15655
-1,-707,15863
-1,-454,15628
-1,-449,15647
-1,-418,15618
-1,-649,15851
-1,-471,15899
-256,-433,15648
-1,-433,15663
-1,-415,15627
-1,-466,15649
-1,-454,15672
-1,-468,15658
-1,-457,15631
-1,-464,15692
-1,-468,15695
-1,-496,15896
-256,-430,15638
-1,-741,15854
-1,-467,15617
-1,-725,15856
-1,-496,15883
-256,-690,15871
-1,-449,15622
-1,-455,15630
-1,-437,15621
-1,-479,15894
-256,-709,15870
-1,-708,15859
-1,-502,15634
-1,-477,15638
-1,-470,15647
-1,-466,15637
-1,-413,15625
-1,-711,15870
-1,-718,16112
-256,-696,16112
-256,-722,15864
-1,-450,15885
-256,-420,15902
-256,-460,15899
-256,-424,15893
-256,-417,15885
-256,-691,16125
-256,-457,15641
-1,-463,15646
-1,-458,15897
-256,-487,15890
-256,-497,15629
-1,-439,15625
-1,-668,16123
-256,-413,15626
-1,-450,15875
-256,-458,15653
-1,-452,15645
-1,-468,15643
-1,-484,15635
-1,-481,15642
-1,-714,16125
-256,-433,15669
-1,-440,15629
-1,-738,15855
-257,-261,15622
-1,-494,15887
-256,-721,16113
-256,-702,15864
-1,-487,15903
-256,-488,15892
-256,-727,15851
-1,-721,15866
-1,-484,15692
-1,-456,15667
-1,-455,15620
-1,-470,15628
-1,-480,15636
-1,-717,16119
-256,-697,15856
-1,-425,15648
-1,-446,15632
-1,-463,15880
-256,-710,16105
-256,-708,15869
-1,-744,15853
-1,-479,15881
-256,-414,15904
-256,-427,15930
-256,-428,15661
-1,-492,15894
-256,-454,15649
-1,-485,15659
-1,-497,15664
-1,-731,16126
-256,-706,15867
-1,-430,15879
-256,-443,15637
-1,-399,15630
-1,-682,15871
-1,-715,15863
-1,-474,15627
-1,-471,15878
-256,-702,15850
-1,-685,16097
-256,-395,15617
-1,-412,15917
-256,-423,15643
-1,-427,15874
-256,-454,15654
-1,-453,15647
-1,-727,15860
-1,-437,15884
-256,-671,16113
-256,-447,15616
-1,-736,16118
-256,-740,16099
-256,-725,15870
-1,-439,15646
-1,-466,15910
-256,-704,16127
-256,-456,15899
-256,-478,15628
-1,-486,15878
-256,-710,15856
-1,-744,15848
-1,-464,15636
-1,-716,16108
-256,-449,15646
-1,-442,15653
-256,-476,15626
-1,-495,15622
-1,-448,15624
-1,-719,15856
-1,-706,15847
-1,-717,15862
-1,-425,15888
-256,-685,15871
-1,-432,15653
-1,-458,15633
-1,-448,15628
-1,-429,15638
-1,-462,15652
-1,-729,16098
-256,-492,15888
-256,-735,16118
-256,-768,15862
-1,-485,15889
-256,-437,15632
-1,-715,15853
-1,-694,15862
-1,-510,15889
-256,-741,15865
-1,-508,15659
-1,-474,15644
-1,-453,15624
-1,-487,15655
-1,-498,15648
-1,-473,15643
-1,-455,15626
-1,-475,15905
-256,-430,15928
-256,-449,15640
-1,-705,15867
-1,-433,15642
-1,-685,16120
-256,-459,15882
-256,-416,15899
-256,-418,15671
-1,-441,15647
-1,-423,15892
-256,-464,15623
-1,-454,15663
-1,-480,15931
-256,-446,15883
-256,-663,15829
-1,-436,15888
-256,-459,15635
-1,-472,15684
-1,-436,15659
-1,-409,15625
-1,-690,16120
-256,-452,15652
-1,-688,16112
-256,-691,16118
-256,-697,15858
-1,-713,16105
-256,-492,15876
-256,-718,15848
-1,-446,15628
-1,-736,15861
-1,-447,15893
-256,-420,15892
-256,-674,16109
-256,-682,16122
-256,-468,15646
-1,-498,15897
-256,-464,15656
-1,-477,15899
-256,-737,15856
-1,-681,15858
-1,-744,15858
-1,-744,15859
-1,-725,15848
-1,-704,15850
-1,-708,15849
-1,-705,15843
-1,-693,15842
-1,-440,15882
-256,-433,15879
-256,-457,15892
-256,-440,15895
-256,-723,16127
-256,-709,16121
-256,-698,15861
-1,-461,15887
-256,-700,15852
-1,-741,16121
-256,-457,15874
-256,-698,16116
-256,-457,15616
-1,-444,15656
-1,-477,15925
-256,-471,15906
-256,-726,16109
-256,-736,15861
-1,-696,15842
-1,-464,15873
-256,-461,15624
-1,-715,15850
-1,-466,15894
-256,-456,15898
-256,-495,15914
-512,-527,16123
-256,-470,15627
-1,-686,15855
-1,-715,15854
-1,-456,15657
-1,-470,15668
-1,-465,15645
-1,-480,15634
-1,-446,15616
-1,-452,15621
-1,-702,15850
-1,-460,15617
-1,-480,15894
-256,-434,15637
-1,-418,15911
-256,-471,15874
-256,-720,16092
-256,-706,16110
-256,-716,16117
-256,-705,15851
-1,-715,15869
-1,-392,15627
-1,-662,16118
-256,-476,15634
-1,-436,15662
-1,-434,15642
-1,-464,15623
-1,-425,15896
-256,-460,15678
-1,-476,15646
-1,-472,15631
-1,-479,15673
-1,-436,15653
-1,-447,15889
-256,-478,15881
-256,-478,15892
-256,-456,15621
-1,-508,15888
-256,-466,15625
-1,-488,15630
-1,-454,15655
-1,-723,15866
-1,-476,15639
-1,-451,15898
-256,-663,15871
-1,-697,15869
-1,-445,15623
-1,-690,16108
-256,-711,16102
-256,-714,16115
-256,-467,15894
-256,-448,15896
-256,-721,16116
-256,-719,15845
-1,-708,16114
-256,-702,16090
-256,-735,16119
-256,-717,16126
-256,-463,15903
-256,-446,15872
-256,-451,15640
-1,-434,15657
-1,-388,15887
-256,-405,15889
-256,-414,15907
-256,-440,15911
-256,-439,15942
-256,-426,15636
-1,-723,15841
-1,-470,15627
-1,-478,15619
-1,-748,16124
-256,-408,15645
-1,-643,15865
-1,-466,15625
-1,-727,16100
-256,-486,15880
-256,-442,15649
-1,-441,15646
-1,-732,15846
-1,-449,15621
-1,-693,15849
-1,-710,15866
-1,-740,15871
-1,-458,15627
-1,-465,15651
-1,-438,15656
-1,-467,15629
-1,-486,15662
-1,-432,15928
-256,-476,15675
-1,-480,15627
-1,-737,15860
-1,-450,15639
-1,-430,15896
-256,-450,15660
-1,-700,15851
-1,-708,15868
-1,-707,15851
-1,-703,15849
-1,-420,15878
-256,-683,16116
-256,-407,15649
-1,-461,15911
-256,-477,15652
-1,-461,15650
-1,-669,16122
-256,-395,15935
-256,-428,15910
-256,-749,16116
-256,-455,15633
-1,-427,15882
-256,-451,15875
-256,-465,15899
-256,-442,15895
-256,-470,15671
-1,-486,15627
-1,-460,15675
-1,-434,15647
-1,-435,15620
-1,-439,15658
-1,-415,15618
-1,-671,15862
-1,-456,15889
-256,-437,15628
-1,-479,15882
-256,-458,15911
-256,-455,15901
-256,-486,15637
-1,-696,16119
-256,-437,15883
-256,-428,15884
-256,-412,15897
-256,-423,15882
-256,-684,16123
-256,-708,16077
-256,-740,16107
-256,-484,15624
-1,-734,15855
-1,-430,15639
-1,-448,15696
-1,-430,15668
-1,-473,15625
-1,-471,15672
-1,-489,15931
-256,-448,15918
-256,-453,15619
-1,-461,15921
-256,-434,15622
-1,-680,16123
-256,-422,15629
-1,-441,15894
-256,-443,15878
-256,-489,15675
-1,-471,15618
-1,-699,15865
-1,-442,15619
-1,-725,15839
-1,-731,15855
-1,-730,15854
-1,-448,15621
-1,-417,15617
-1,-431,15672
-1,-423,15646
-1,-410,15642
-1,-437,15656
-1,-457,15912
-256,-429,15640
-1,-466,15666
-1,-435,15946
-256,-421,15912
-256,-409,15637
-1,-684,15862
-1,-455,15622
-1,-465,15618
-1,-724,15835
-1,-743,15840
-1,-478,15620
-1,-481,15641
-1,-487,15873
-256,-423,15887
-256,-401,15877
-256,-399,15616
-1,-440,15914
-256,-511,15896
-256,-488,15883
-256,-455,15643
-1,-428,15653
-1,-446,15656
-1,-454,15621
-1,-443,15627
-1,-714,15857
-1,-733,16086
-256,-747,15842
-1,-467,15634
-1,-435,15916
-256,-691,15869
-1,-684,15863
-1,-481,15637
-1,-465,15623
-1,-432,15636
-1,-385,15628
-1,-688,15861
-1,-459,15906
-256,-462,15647
-1,-445,15931
-256,-428,15894
-256,-434,15910
-256,-707,15871
-1,-735,15830
-1,-479,15884
-256,-432,15684
-1,-449,15634
-1,-687,15862
-1,-672,16115
-256,-425,15889
-256,-486,15656
-1,-479,15625
-1,-727,15861
-1,-495,15879
-256,-472,15632
-1,-470,15675
-1,-478,15626
-1,-711,15857
-1,-477,15889
-256,-443,15883
-256,-484,15873
-512,-261,15630
-1,-458,15910
-256,-477,15644
-1,-433,15629
-1,-698,16116
-256,-442,15907
-256,-470,15914
-256,-461,15630
-1,-436,15625
-1,-471,15662
-1,-449,15641
-1,-474,15616
-1,-698,15845
-1,-664,15863
-1,-452,15889
-256,-474,15626
-1,-746,15835
-1,-761,15868
-1,-757,16117
-256,-756,16110
-256,-492,15619
-1,-467,15908
-256,-462,15673
-1,-465,15635
-1,-654,15866
-1,-699,15870
-1,-733,16114
-256,-501,15903
-256,-446,15647
-1,-435,15686
-1,-439,15934
-256,-454,15913
-256,-452,15616
-1,-433,15640
-1,-439,15622
-1,-434,15663
-1,-665,15859
-1,-691,16098
-256,-698,15830
-1,-707,15863
-1,-462,15644
-1,-483,15653
-1,-461,15674
-1,-454,15670
-1,-434,15627
-1,-743,16121
-256,-725,15841
-1,-707,15860
-1,-714,15841
-1,-726,15826
-1,-694,15870
-1,-681,15866
-1,-471,15630
-1,-478,15662
-1,-442,15877
-256,-432,15617
-1,-443,15898
-256,-739,16124
-256,-448,15899
-256,-490,15900
-256,-462,15873
-256,-398,15882
-256,-396,15626
-1,-407,15927
-256,-423,15918
-256,-457,15632
-1,-445,15874
-256,-679,16121
-256,-465,15885
-256,-439,15660
-1,-413,15644
-1,-677,15869
-1,-388,15671
-1,-440,15661
-1,-425,15657
-1,-445,15647
-1,-459,15644
-1,-485,15653
-1,-436,15647
-1,-405,15637
-1,-456,15653
-1,-437,15654
-1,-471,15649
-1,-465,15659
-1,-483,15626
-1,-458,15878
-256,-700,16101
-256,-720,15861
-1,-442,15666
-1,-454,15688
-1,-445,15884
-256,-421,15883
-256,-462,15646
-1,-459,15617
-1,-695,15865
-1,-704,15865
-1,-417,15634
-1,-453,15918
-256,-476,15938
-256,-467,15698
-1,-466,15923
-256,-502,15659
-1,-477,15631
-1,-467,15886
-256,-709,15830
-1,-510,15872
-256,-500,15892
-256,-682,15852
-1,-447,15642
-1,-754,15869
-1,-494,15650
-1,-507,15635
-1,-729,15871
-1,-472,15625
-1,-433,15640
-1,-696,15857
-1,-483,15630
-1,-704,16107
-256,-444,15659
-1,-688,15847
-1,-424,15647
-1,-679,15863
-1,-396,15876
-256,-446,15640
-1,-463,15881
-512,-264,15900
-256,-462,15662
-1,-739,15869
-1,-685,15870
-1,-443,15638
-1,-456,15636
-1,-434,15620
-1,-461,15880
-256,-737,16118
-256,-472,15636
-1,-482,15654
-1,-486,15873
-256,-469,15631
-1,-724,16107
-256,-717,15863
-1,-467,15631
-1,-429,15620
-1,-412,15617
-1,-723,15871
-1,-468,15641
-1,-726,15865
-1,-450,15909
-256,-459,15874
-256,-731,16124
-256,-462,15623
-257,-273,15649
-1,-472,15670
-1,-489,15634
-1,-497,15913
-256,-456,15639
-1,-443,15893
-256,-447,15625
-1,-477,15618
-1,-718,15871
-1,-448,15631
-1,-484,15876
-256,-487,15619
-1,-436,15628
-1,-459,15662
-1,-710,15866
-1,-448,15873
-256,-734,16126
-256,-707,15846
-1,-473,15660
-1,-439,15649
-1,-472,15662
-1,-448,15897
-256,-461,15885
-256,-688,16106
-256,-704,16125
-256,-687,15860
-1,-459,15625
-1,-454,15646
-1,-486,15904
-256,-465,15644
-1,-447,15645
-1,-457,15874
-256,-452,15666
-1,-461,15644
-1,-710,15861
-1,-704,15869
-1,-731,15865
-1,-476,15644
-1,-480,15645
-1,-479,15673
-1,-487,15639
-1,-488,15623
-1,-484,15662
-1,-452,15664
-1,-462,15877
-256,-717,16117
-256,-694,15860
-1,-711,15835
-1,-724,16110
-256,-725,15855
-1,-414,15643
-1,-462,15636
-1,-462,15887
-256,-464,15883
-256,-697,16121
-256,-443,15638
-1,-467,15645
-1,-483,15892
-256,-458,15897
-256,-490,15643
-1,-476,15879
-256,-466,15646
-1,-460,15632
-1,-698,15855
-1,-449,15621
-1,-470,15646
-1,-674,15863
-1,-711,15854
-1,-458,15890
-256,-700,15857
-1,-495,15618
-1,-747,15863
-1,-455,15913
-256,-460,15669
-1,-437,15673
-1,-454,15888
-256,-699,16118
-256,-699,16123
-256,-722,16124
-256,-684,16108
-256,-740,15854
-1,-463,15637
-1,-727,15845
-1,-485,15644
-1,-459,15624
-1,-692,16116
-256,-426,15895
-256,-399,15883
-256,-714,15867
-1,-755,15836
-1,-709,15864
-257,-523,15865
-1,-497,15660
-1,-481,15672
-1,-441,15927
-256,-432,15634
-1,-688,15870
-1,-423,15621
-1,-433,15631
-1,-433,15644
-1,-425,15627
-1,-458,15620
-1,-453,15897
-256,-472,15669
-1,-473,15637
-1,-433,15642
-1,-467,15657
-1,-487,15910
-256,-732,15864
-1,-751,15861
-1,-464,15874
-256,-700,15861
-1,-453,15881
-256,-448,15894
-256,-416,15634
-1,-732,16126
-256,-436,15637
-1,-424,15884
-256,-462,15634
-1,-498,15649
-1,-469,15889
-256,-715,16106
-256,-695,15857
-1,-461,15627
-256,-454,15624
-1,-450,15665
-1,-464,15645
-1,-420,15634
-1,-436,15629
-1,-686,15866
-1,-453,15873
-256,-419,15884
-256,-471,15629
-1,-447,15906
-256,-477,15914
-256,-451,15627
-1,-458,15639
-1,-722,16124
-256,-748,16123
-256,-492,15894
-256,-431,15899
-256,-453,15669
-1,-740,16118
-256,-461,15642
-1,-446,15895
-256,-497,15636
-1,-485,15620
-1,-468,15640
-1,-478,15662
-1,-423,15647
-1,-443,15901
-256,-751,16123
-256,-449,15888
-256,-457,15627
-1,-390,15683
-1,-419,15660
-1,-440,15641
-1,-725,15862
-1,-462,15645
-1,-463,15645
-1,-732,15861
-1,-468,15894
-256,-702,15834
-1,-721,16125
-256,-708,16091
-256,-687,16107
-256,-651,16051
-256,-683,15821
-1,-413,15897
-256,-453,15650
-1,-724,15871
-1,-461,15874
-256,-424,15872
-256,-455,15622
-1,-427,15629
-1,-474,15639
-1,-733,15858
-1,-684,15859
-1,-711,15853
-1,-466,15628
-1,-478,15619
-1,-425,15629
-1,-693,15864
-1,-717,15865
-1,-724,15863
-257,-513,15862
-1,-452,15626
-1,-720,15859
-1,-433,15635
-1,-416,15897
-256,-454,15880
-256,-438,15642
-1,-500,15652
-257,-258,15683
-1,-457,15656
-1,-489,15631
-1,-465,15651
-1,-451,15624
-1,-438,15641
-1,-723,15856
-1,-717,15856
-1,-428,15640
-1,-463,15878
-256,-439,15674
-1,-481,15675
-1,-494,15921
-256,-458,15619
-1,-698,15847
-1,-460,15626
-1,-445,15636
-1,-723,16122
-256,-751,15867
-257,-517,15861
-1,-488,15631
-1,-471,15698
-1,-431,15659
-1,-454,15660
-1,-448,15876
-256,-454,15917
-256,-455,15880
-256,-740,15855
-1,-755,15867
-1,-468,15880
-256,-445,15643
-1,-446,15879
-256,-480,15662
-1,-497,15641
-1,-712,16123
-256,-725,15859
-1,-467,15634
-257,-261,15663
-1,-455,15691
-1,-473,15654
-1,-496,15673
-1,-485,15892
-256,-724,16109
-256,-460,15872
-256,-483,15888
-256,-701,15867
-1,-449,15876
-256,-718,15867
-1,-470,15667
-1,-472,15630
-1,-461,15624
-1,-477,15890
-256,-448,15642
-1,-488,15629
-1,-487,15634
-1,-483,15618
-1,-453,15617
-1,-712,15860
-1,-702,15838
-1,-431,15641
-1,-419,15893
-256,-461,15617
-1,-478,15626
-1,-727,15847
-1,-726,15839
-1,-736,16095
-256,-732,16115
-256,-434,15631
-1,-438,15649
-1,-482,15663
-1,-442,15630
-1,-456,15664
-1,-721,15868
-1,-719,15854
-1,-469,15619
-1,-431,15619
-1,-454,15641
-1,-469,15642
-1,-473,15904
-256,-727,16121
-256,-452,15903
-256,-439,15617
-1,-737,16125
-256,-457,15619
-1,-716,15871
-1,-463,15885
-256,-470,15875
-256,-467,15660
-1,-443,15652
-1,-431,15655
-1,-747,15844
-1,-461,15892
-256,-452,15649
-1,-491,15882
-256,-480,15653
-1,-458,15636
-1,-418,15637
-1,-436,15917
-256,-472,15635
-1,-728,15860
-1,-683,15865
-1,-420,15618
-1,-445,15642
-1,-467,15616
-1,-486,15887
-256,-767,16126
-256,-480,15631
-1,-696,15871
-1,-694,15862
-1,-437,15898
-256,-490,15629
-1,-449,15618
-1,-427,15622
-1,-442,15643
-1,-409,15889
-256,-702,16122
-256,-726,16095
-256,-458,15628
-1,-703,15864
-1,-447,15624
-1,-455,15631
-1,-433,15655
-1,-434,15926
-256,-439,15659
-1,-417,15644
-1,-679,15867
-1,-701,15854
-1,-422,15646
-1,-499,15877
-256,-472,15659
-1,-719,16117
-256,-694,16094
-256,-694,15860
-1,-440,15618
-1,-708,16124
-256,-700,16117
-256,-448,15616
-1,-445,15640
-1,-469,15887
-256,-449,15650
-1,-473,15650
-1,-429,15670
-1,-457,15882
-256,-472,15648
-1,-733,16117
-256,-764,16118
-256,-745,16107
-256,-482,15622
-1,-472,15618
-1,-705,16115
-256,-475,15886
-256,-483,15632
-1,-416,15654
-1,-426,15658
-1,-435,15649
-1,-462,15688
-1,-470,15651
-1,-483,15657
-1,-474,15874
-256,-489,15635
-1,-487,15660
-1,-471,15889
-256,-456,15618
-1,-708,15870
-1,-466,15641
-1,-482,15876
-256,-440,15888
-256,-488,15629
-1,-497,15649
-1,-500,15879
-256,-707,16113
-256,-643,15864
-1,-452,15620
-1,-723,15858
-1,-435,15638
-1,-728,15862
-1,-475,15634
-1,-480,15617
-1,-704,15848
-1,-454,15635
-1,-433,15619
-1,-728,15846
-1,-456,15649
-1,-738,16123
-256,-504,15655
-1,-440,15883
-256,-468,15914
-256,-440,15906
-256,-461,15670
-1,-465,15666
-1,-470,15902
-256,-438,15898
-256,-444,15914
-256,-468,15641
-1,-444,15668
-1,-701,16114
-256,-452,15917
-256,-387,15919
-256,-437,15883
-256,-440,15885
-256,-470,15909
-256,-469,15631
-1,-467,15664
-1,-442,15652
-1,-446,15636
-1,-700,15857
-1,-717,15866
-1,-461,15629
-1,-458,15904
-256,-725,15869
-1,-463,15890
-256,-744,15871
-1,-455,15638
-1,-439,15648
-1,-398,15931
-256,-428,15653
-1,-457,15679
-1,-447,15672
-1,-463,15881
-256,-482,15661
-1,-452,15664
-1,-437,15919
-256,-459,15893
-256,-458,15909
-256,-730,16123
-256,-717,15848
-1,-730,15828
-1,-438,15876
-256,-477,15905
-256,-704,16111
-256,-463,15651
-1,-673,15858
-1,-440,15659
-1,-441,15619
-1,-461,15625
-1,-719,15838
-1,-732,15870
-1,-461,15672
-1,-469,15652
-1,-458,15628
-1,-714,16101
-256,-461,15895
-256,-446,15889
-256,-436,15642
-1,-731,15865
-1,-727,15861
-1,-436,15638
-1,-462,15896
-256,-467,15654
-1,-461,15661
-1,-470,15655
-1,-436,15686
-1,-471,15651
-1,-443,15620
-1,-446,15652
-1,-472,15627
-1,-503,15893
-256,-471,15900
-256,-499,15658
-1,-454,15681
-1,-452,15873
-256,-700,16120
-256,-698,15828
-1,-682,15839
-1,-450,15640
-1,-474,15655
-1,-476,15672
-1,-727,15865
-1,-767,15833
-1,-711,15837
-1,-454,15908
-256,-673,15866
-1,-438,15879
-256,-425,15891
-256,-442,15661
-1,-484,15635
-1,-457,15632
-1,-685,15856
-1,-462,15618
-1,-709,15870
-1,-452,15618
-1,-702,15852
-1,-460,15633
-1,-467,15688
-1,-491,15659
-1,-477,15937
-256,-716,15870
-1,-486,15616
-1,-720,15835
-1,-709,15862
-1,-720,16106
-256,-710,16108
-256,-748,16109
-256,-484,15652
-1,-432,15660
-1,-406,15624
-1,-700,16114
-256,-739,15838
-1,-729,15858
-1,-443,15647
-1,-714,15866
-1,-445,15896
-256,-664,16121
-256,-428,15886
-256,-710,16099
-256,-714,15852
-1,-741,15870
-1,-467,15887
-256,-709,15870
-1,-414,15632
-1,-430,15631
-1,-452,15646
-1,-434,15656
-1,-673,16118
-256,-707,16066
-256,-424,15626
-1,-443,15667
-1,-440,15626
-1,-663,15858
-1,-449,15887
-256,-447,15911
-256,-410,15891
-256,-706,16095
-256,-718,15867
-1,-474,15628
-1,-441,15898
-256,-430,15644
-1,-691,15850
-1,-494,15650
-1,-453,15905
-256,-453,15616
-1,-473,15642
-1,-410,15656
-1,-426,15646
-1,-452,15907
-256,-511,15630
-1,-742,16088
-256,-475,15639
-1,-468,15628
-1,-454,15875
-256,-711,15851
-1,-449,15650
-1,-433,15639
-1,-403,15670
-1,-405,15922
-256,-448,15652
-1,-419,15669
-1,-470,15895
-256,-729,16123
-256,-729,15864
-1,-474,15626
-1,-469,15881
-256,-474,15901
-256,-458,15637
-1,-738,16119
-256,-695,16110
-256,-671,16120
-256,-468,15624
-1,-451,15655
-1,-400,15648
-1,-462,15647
-1,-470,15630
-1,-506,15621
-1,-463,15887
-256,-728,16101
-256,-460,15618
-1,-752,16116
-256,-753,15866
-1,-432,15647
-1,-429,15640
-1,-441,15873
-256,-461,15895
-256,-447,15658
-1,-426,15924
-256,-435,15883
-256,-708,16126
-256,-487,15628
-1,-755,15840
-1,-455,15617
-1,-466,15636
-1,-745,15865
-1,-712,15860
-1,-736,16122
-256,-463,15891
-256,-422,15888
-256,-440,15879
-256,-468,15896
-256,-464,15683
-1,-468,15910
-256,-474,15653
-1,-505,15641
-1,-757,16123
-256,-446,15638
-1,-454,15629
-1,-474,15637
-1,-459,15669
-1,-450,15635
-1,-452,15619
-1,-441,15627
-1,-721,15870
-1,-468,15896
-256,-441,15710
-1,-459,15909
-256,-448,15661
-1,-412,15633
-1,-435,15881
-256,-447,15675
-1,-457,15664
-1,-744,16116
-256,-466,15895
-256,-478,15897
-256,-494,15639
-1,-466,15646
-1,-739,15871
-1,-709,15858
-1,-452,15895
-256,-450,15636
-1,-476,15664
-1,-736,15871
-1,-693,16108
-256,-447,15631
-1,-482,15908
-256,-449,15636
-1,-450,15629
-1,-715,15869
-1,-465,15647
-1,-715,15867
-1,-455,15653
-1,-705,15864
-1,-692,16109
-256,-664,16101
-256,-719,15855
-1,-736,15863
-1,-440,15629
-1,-727,15867
-1,-483,15633
-1,-441,15906
-256,-450,15884
-256,-485,15906
-256,-456,15671
-1,-448,15634
-1,-471,15891
-512,-264,15641
-1,-728,15865
-1,-466,15646
-1,-462,15628
-1,-479,15638
-1,-475,15647
-1,-435,15874
-256,-441,15886
-256,-713,15865
-1,-466,15617
-1,-767,15850
-1,-744,15868
-1,-463,15880
-256,-439,15654
-1,-444,15665
-1,-450,15624
-1,-482,15627
-1,-465,15642
-1,-417,15681
-1,-443,15663
-1,-445,15617
-1,-726,15864
-1,-435,15877
-256,-732,15845
-1,-731,15854
-1,-478,15623
-1,-442,15636
-1,-438,15651
-1,-439,15645
-1,-458,15644
-1,-423,15882
-256,-462,15635
-1,-692,16109
-256,-493,15630
-1,-459,15634
-1,-722,16103
-256,-432,15892
-256,-420,15889
-256,-459,15895
-256,-435,15898
-256,-428,15627
-1,-404,15655
-1,-411,15629
-1,-406,15633
-1,-444,15651
-1,-467,15653
-1,-458,15666
-1,-461,15622
-1,-469,15628
-1,-463,15635
-1,-707,16111
-256,-721,16117
-256,-707,15852
-1,-473,15626
-1,-733,15869
-1,-455,15651
-1,-734,15866
-1,-443,15906
-256,-429,15907
-256,-473,15637
-1,-731,16096
-256,-721,16125
-256,-458,15880
-256,-716,15868
-1,-695,15843
-1,-711,16123
-256,-406,15640
-1,-446,15623
-1,-435,15639
-1,-420,15659
-1,-712,15869
-1,-687,15853
-1,-687,15869
-1,-708,15865
-1,-711,16096
-256,-709,15854
-1,-714,15861
-1,-481,15633
-1,-449,15654
-1,-646,15862
-1,-422,15885
-256,-699,15863
-1,-702,15870
-1,-460,15651
-1,-457,15636
-1,-434,15895
-256,-435,15629
-1,-427,15941
-256,-453,15641
-1,-748,16105
-256,-462,15637
-1,-455,15901
-256,-461,15642
-1,-439,15619
-1,-443,15656
-1,-436,15625
-1,-691,15870
-1,-454,15643
-1,-700,15871
-1,-686,15850
-1,-423,15624
-1,-443,15935
-256,-405,15652
-1,-402,15662
-1,-414,15880
-256,-704,16100
-256,-695,15858
-1,-451,15616
-1,-664,16124
-256,-688,16115
-256,-463,15631
-257,-518,15862
-1,-709,15859
-1,-481,15630
-257,-260,15654
-1,-466,15874
-256,-472,15659
-1,-479,15629
-1,-742,16126
-256,-434,15623
-1,-447,15636
-1,-438,15905
-256,-445,15889
-256,-457,15653
-1,-454,15625
-1,-473,15631
-1,-444,15662
-1,-412,15627
-1,-397,15629
-1,-435,15662
-1,-413,15687
-1,-441,15672
-1,-419,15654
-1,-427,15899
-256,-420,15914
-256,-423,15683
-1,-443,15631
-1,-708,15865
-1,-448,15638
-1,-404,15884
-256,-432,15623
-1,-737,15858
-1,-461,15649
-1,-462,15700
-1,-460,15914
-256,-435,15616
-1,-430,15622
-1,-447,15634
-1,-721,15857
-1,-476,15647
-1,-497,15648
-1,-472,15654
-1,-465,15649
-1,-721,15866
-1,-466,15889
-256,-492,15939
-256,-455,15668
-1,-427,15639
-1,-420,15876
-256,-497,15618
-1,-746,15846
-1,-749,15859
-1,-462,15642
-1,-459,15655
-1,-434,15632
-1,-465,15669
-1,-439,15668
-1,-461,15892
-256,-475,15622
-1,-459,15620
-1,-730,15833
-1,-749,15865
-1,-450,15640
-1,-455,15883
-256,-477,15668
-1,-467,15642
-1,-453,15898
-256,-717,15862
-1,-703,15859
-1,-446,15679
-1,-399,15677
-1,-446,15660
-1,-434,15654
-1,-427,15631
-1,-466,15648
-1,-444,15637
-1,-415,15657
-1,-443,15638
-1,-460,15628
-1,-471,15904
-256,-474,15660
-1,-467,15640
-1,-420,15628
-1,-689,15841
-1,-715,15867
-1,-459,15629
-1,-476,15624
-1,-502,15901
-256,-493,15876
-256,-429,15888
-256,-409,15646
-1,-425,15624
-1,-463,15629
-1,-694,15868
-1,-703,15826
-1,-720,15850
-1,-459,15630
-1,-761,16125
-256,-720,15851
-1,-455,15638
-1,-482,15623
-1,-480,15625
-1,-755,15860
-1,-476,15618
-1,-474,15912
-256,-440,15629
-1,-693,15852
-1,-677,15856
-1,-672,15866
-1,-443,15643
-1,-466,15626
-1,-420,15632
-1,-429,15645
-1,-452,15886
-256,-501,15657
-1,-433,15882
-256,-412,15648
-1,-406,15880
-256,-409,15670
-1,-384,15643
-1,-689,15869
-1,-724,15859
-1,-690,15863
-1,-422,15887
-256,-681,15867
-1,-736,15826
-1,-445,15623
-1,-453,15668
-1,-463,15910
-256,-463,15628
-1,-707,15871
-1,-690,15853
-1,-687,15865
-1,-697,15863
-1,-700,16116
-256,-465,15619
-1,-492,15903
-256,-751,16116
-256,-757,16106
-256,-730,16123
-256,-739,16103
-256,-414,15872
-256,-722,16116
-256,-460,15892
-256,-446,15880
-256,-482,15886
-256,-448,15894
-256,-428,15928
-256,-684,16110
-256,-725,15842
-1,-657,16113
-256,-667,15860
-1,-687,15850
-1,-732,15847
-1,-466,15618
-1,-715,15865
-1,-691,15863
-1,-418,15666
-1,-490,15653
-1,-456,15917
-256,-449,15899
-256,-430,15631
-1,-439,15650
-1,-421,15649
-1,-470,15626
-1,-492,15626
-1,-482,15637
-1,-478,15885
-256,-448,15637
-1,-687,15871
-1,-441,15619
-1,-462,15649
-1,-444,15635
-1,-713,15870
-1,-440,15617
-1,-475,15617
-1,-474,15678
-1,-469,15650
-1,-497,15626
-1,-697,16091
-256,-690,16106
-256,-733,16115
-256,-482,15646
-1,-749,15861
-1,-730,15870
-1,-478,15622
-1,-498,15881
-256,-753,15867
-1,-748,15855
-1,-507,15630
-1,-507,15649
-257,-259,15929
-256,-488,15666
-1,-446,15906
-256,-422,15620
-1,-445,15647
-1,-451,15635
-1,-460,15658
-1,-471,15628
-1,-431,15627
-1,-695,15856
-1,-435,15618
-1,-711,15866
-1,-692,15860
-1,-466,15635
-1,-462,15878
-256,-442,15889
-256,-482,15900
-256,-499,15628
-1,-466,15624
-1,-438,15649
-1,-438,15674
-1,-437,15631
-1,-440,15626
-1,-403,15892
-256,-442,15890
-256,-461,15642
-1,-453,15632
-1,-709,15852
-1,-454,15878
-256,-422,15667
-1,-440,15667
-1,-438,15617
-1,-465,15885
-256,-417,15908
-256,-428,15682
-1,-457,15670
-1,-433,15618
-1,-491,15636
-1,-462,15626
-1,-465,15638
-1,-472,15665
-1,-455,15677
-1,-407,15656
-1,-419,15640
-1,-457,15894
-256,-488,15644
-1,-708,15865
-1,-695,15870
-1,-410,15648
-1,-431,15891
-256,-418,15916
-256,-683,16127
-256,-443,15652
-1,-458,15625
-1,-457,15632
-1,-695,15868
-1,-450,15637
-1,-699,15866
-1,-739,16111
-256,-476,15874
-256,-462,15623
-1,-441,15878
-256,-761,16108
-256,-725,15867
-1,-692,15870
-1,-716,15865
-1,-443,15624
-1,-431,15626
-1,-455,15900
-256,-457,15884
-256,-448,15623
-1,-482,15878
-256,-469,15628
-1,-473,15643
-1,-461,15650
-1,-417,15629
-1,-720,15853
-1,-435,15881
-256,-722,15866
-1,-742,15867
-1,-710,15847
-1,-472,15650
-1,-474,15621
-1,-690,15856
-1,-433,15632
-1,-469,15886
-256,-697,16118
-256,-420,15878
-256,-396,15902
-256,-437,15912
-256,-419,15678
-1,-497,15667
-1,-721,15866
-1,-427,15625
-1,-738,15852
-1,-688,16103
-256,-693,15857
-1,-453,15644
-1,-466,15661
-1,-450,15907
-256,-482,15635
-1,-480,15626
-1,-400,15626
-1,-424,15649
-1,-435,15906
-256,-418,15649
-1,-434,15620
-1,-701,15831
-1,-664,15849
-1,-669,15839
-1,-713,15840
-1,-710,16116
-256,-682,15833
-1,-704,15864
-1,-454,15647
-1,-454,15908
-256,-485,15912
-256,-446,15656
-1,-441,15637
-1,-680,15821
-1,-700,15855
-1,-684,15865
-1,-448,15642
-1,-710,15855
-1,-704,16117
-256,-460,15881
-256,-688,15866
-1,-685,15855
-1,-694,16107
-256,-427,15622
-1,-434,15656
-1,-469,15677
-1,-479,15633
-1,-456,15635
-1,-717,15868
-1,-762,15863
-1,-721,15863
-1,-458,15878
-256,-728,15831
-1,-499,15620
-1,-470,15881
-256,-467,15659
-1,-487,15894
-256,-456,15630
-1,-439,15622
-1,-703,16110
-256,-485,15660
-1,-476,15639
-1,-736,15862
-1,-723,16114
-256,-465,15634
-1,-452,15636
-1,-463,15660
-1,-674,15866
-1,-457,15629
-1,-439,15653
-1,-459,15900
-256,-451,15633
-1,-433,15631
-1,-454,15877
-256,-701,16101
-256,-719,15855
-1,-700,15865
-1,-468,15633
-1,-430,15883
-256,-416,15653
-1,-442,15627
-1,-683,15866
-1,-410,15910
-256,-416,15911
-256,-444,15677
-1,-477,15649
-1,-465,15652
-1,-448,15898
-256,-459,15918
-256,-493,15641
-1,-705,15852
-1,-698,15862
-1,-704,15855
-1,-464,15621
-1,-700,15839
-1,-727,15838
-1,-742,15865
-1,-721,15848
-1,-728,16116
-256,-447,15630
-1,-449,15658
-1,-472,15634
-1,-466,15642
-1,-444,15623
-1,-709,16118
-256,-454,15620
-1,-480,15904
-256,-472,15650
-1,-404,15653
-1,-437,15893
-256,-702,15870
-1,-456,15659
-1,-471,15655
-1,-706,15861
-1,-718,15842
-1,-736,15869
-1,-690,16125
-256,-695,16114
-256,-435,15887
-256,-452,15663
-1,-471,15640
-1,-423,15646
-1,-406,15618
-1,-433,15634
-1,-457,15900
-256,-438,15635
-1,-707,15863
-1,-448,15662
-1,-483,15933
-256,-456,15936
-256,-430,15668
-1,-445,15880
-256,-417,15893
-256,-425,15629
-1,-691,15842
-1,-730,15871
-1,-713,15859
-1,-449,15641
-1,-432,15618
-1,-709,15836
-1,-722,15864
-1,-746,15865
-1,-448,15885
-256,-423,15882
-256,-708,15871
-1,-684,15830
-1,-417,15874
-256,-438,15892
-256,-443,15619
-1,-706,15871
-1,-678,15833
-1,-425,15621
-1,-447,15626
-1,-723,15861
-1,-717,15862
-257,-283,15620
-1,-479,15631
-1,-444,15887
-256,-469,15901
-256,-462,15626
-1,-473,15620
-1,-405,15655
-1,-467,15931
-256,-396,15907
-256,-418,15634
-1,-658,15860
-1,-684,15831
-1,-689,15840
-1,-701,15864
-1,-473,15617
-1,-458,15630
-1,-472,15672
-1,-733,15837
-1,-495,15627
-1,-466,15619
-1,-481,15629
-1,-722,15865
-1,-674,15847
-1,-441,15623
-1,-435,15618
-1,-449,15637
-1,-470,15671
-1,-507,15661
-1,-457,15625
-1,-449,15620
-1,-456,15654
-1,-459,15636
-1,-462,15625
-1,-454,15655
-1,-448,15625
-1,-432,15885
-256,-465,15650
-1,-498,15657
-1,-494,15621
-1,-763,15861
-1,-704,15857
-1,-672,15862
-1,-694,15868
-1,-426,15618
-1,-409,15887
-256,-449,15648
-1,-456,15650
-1,-431,15648
-1,-462,15899
-256,-451,15648
-1,-453,15629
-1,-445,15913
-256,-447,15882
-256,-464,15625
-1,-468,15620
-1,-446,15627
-1,-676,16124
-256,-475,15896
-256,-442,15661
-1,-425,15910
-256,-418,15891
-256,-457,15929
-256,-463,15895
-256,-434,15650
-1,-511,15629
-1,-491,15630
-1,-718,16118
-256,-459,15880
-256,-700,15857
-1,-430,15620
-1,-697,15871
-1,-716,15851
-1,-446,15625
-1,-438,15632
-1,-470,15876
-256,-730,16100
-256,-716,16122
-256,-454,15641
-1,-702,15864
-1,-446,15631
-1,-426,15616
-1,-700,15864
-1,-744,16126
-256,-477,15625
-1,-487,15656
-1,-441,15629
-1,-453,15636
-1,-456,15669
-1,-443,15654
-1,-409,15622
-1,-671,15824
-1,-446,15627
-1,-444,15628
-1,-428,15660
-1,-436,15622
-1,-449,15620
-1,-426,15618
-1,-440,15878
-256,-448,15919
-256,-459,15891
-256,-730,15822
-1,-735,15857
-1,-488,15887
-256,-697,16124
-256,-456,15621
-1,-447,15638
-1,-479,15670
-1,-736,16126
-256,-733,15835
-1,-762,16097
-256,-724,15830
-1,-469,15637
-1,-470,15660
-1,-657,16121
-256,-663,16111
-256,-697,16119
-256,-701,16118
-256,-511,15900
-256,-752,15865
-1,-472,15634
-1,-460,15636
-1,-450,15618
-1,-734,16105
-256,-491,15630
-1,-507,15679
-1,-502,15649
-1,-749,15825
-1,-752,15847
-1,-457,15637
-1,-453,15643
-1,-447,15621
-1,-691,15850
-1,-409,15638
-1,-438,15653
-1,-468,15875
-256,-741,15852
-1,-719,15859
-1,-759,15850
-1,-737,15862
-1,-720,16061
-256,-718,15847
-1,-734,15816
-1,-684,15812
-1,-698,15862
-1,-436,15626
-1,-689,16123
-256,-736,16097
-256,-699,16094
-256,-442,15626
-1,-715,15869
-1,-699,15861
-1,-469,15635
-1,-685,15871
-1,-708,15823
-1,-465,15881
-256,-446,15881
-256,-759,15870
-1,-674,16115
-256,-674,16125
-256,-435,15647
-1,-466,15634
-1,-468,15628
-1,-443,15643
-1,-452,15633
-1,-726,15868
-1,-739,15857
-1,-473,15624
-1,-756,15868
-1,-719,15847
-1,-718,15842
-1,-476,15636
-1,-449,15656
-1,-689,16112
-256,-460,15884
-256,-448,15893
-256,-465,15630
-1,-490,15618
-1,-682,16109
-256,-386,15882
-256,-697,16125
-256,-736,16101
-256,-728,16085
-256,-452,15641
-1,-404,15646
-1,-468,15645
-1,-462,15881
-256,-451,15893
-256,-443,15912
-256,-427,15899
-256,-460,15872
-256,-728,16119
-256,-454,15879
-256,-490,15637
-1,-735,16125
-256,-448,15639
-1,-413,15634
-1,-391,15884
-256,-692,15871
-1,-451,15883
-256,-727,16119
-256,-452,15874
-256,-473,15880
-256,-444,15888
-256,-457,15934
-256,-470,15896
-256,-455,15630
-1,-458,15640
-1,-455,15629
-1,-485,15910
-256,-732,15854
-1,-719,15859
-1,-432,15621
-1,-443,15642
-1,-472,15634
-1,-735,15840
-1,-475,15616
-1,-461,15895
-256,-497,15905
-256,-474,15657
-1,-458,15635
-1,-666,16102
-256,-452,15899
-256,-465,15664
-1,-444,15651
-1,-468,15643
-1,-442,15632
-1,-455,15660
-1,-453,15945
-256,-414,15879
-256,-438,15630
-1,-731,15870
-1,-720,15860
-1,-729,16123
-256,-503,15620
-1,-500,15622
-1,-473,15645
-1,-424,15634
-1,-697,15869
-1,-425,15632
-1,-678,15871
-1,-679,15854
-1,-716,15849
-1,-402,15621
-1,-396,15619
-1,-675,16092
-256,-698,16096
-256,-730,15863
-1,-723,15856
-1,-745,15866
-1,-477,15639
-1,-429,15897
-256,-680,16100
-256,-696,16124
-256,-691,16123
-256,-713,15854
-1,-419,15879
-256,-462,15910
-256,-451,15646
-1,-460,15633
-1,-722,15837
-1,-446,15632
-1,-466,15625
-1,-499,15638
-1,-689,16120
-256,-450,15924
-256,-405,15668
-1,-411,15652
-1,-437,15644
-1,-449,15619
-1,-459,15933
-256,-464,15913
-256,-453,15657
-1,-476,15639
-1,-679,15864
-1,-652,16094
-256,-683,16113
-256,-690,15851
-1,-706,15864
-1,-447,15638
-1,-451,15621
-1,-690,15833
-1,-663,15867
-1,-694,16093
-256,-683,16114
-256,-400,15884
-256,-428,15892
-256,-462,15652
-1,-426,15637
-1,-451,15630
-1,-439,15627
-1,-445,15883
-256,-411,15621
-1,-695,15859
-1,-461,15654
-1,-476,15921
-256,-493,15652
-1,-473,15638
-1,-709,15839
-1,-470,15622
-1,-450,15631
-1,-458,15658
-1,-445,15645
-1,-450,15932
-256,-706,16126
-256,-665,16094
-256,-428,15634
-1,-427,15690
-1,-420,15654
-1,-452,15887
-256,-447,15898
-256,-466,15925
-256,-437,15921
-256,-443,15913
-256,-465,15923
-256,-486,15658
-1,-502,15924
-256,-494,15618
-1,-464,15629
-1,-658,15855
-1,-703,16088
-256,-741,15856
-1,-458,15638
-1,-448,15884
-256,-444,15889
-256,-407,15892
-256,-409,15640
-1,-397,15651
-1,-453,15660
-1,-465,15920
-256,-494,15667
-1,-484,15637
-1,-424,15626
-1,-456,15642
-1,-452,15902
-256,-684,15837
-1,-697,15853
-1,-457,15647
-1,-446,15695
-1,-458,15915
-256,-456,15666
-1,-471,15900
-256,-436,15898
-256,-664,16074
-256,-655,15854
-1,-484,15654
-1,-465,15659
-1,-466,15658
-1,-472,15662
-1,-431,15898
-256,-479,15887
-256,-455,15896
-256,-488,15644
-1,-471,15625
-1,-757,15869
-1,-458,15647
-1,-450,15883
-256,-455,15677
-1,-467,15616
-1,-718,15850
-1,-412,15655
-1,-442,15629
-1,-678,16091
-256,-462,15897
-256,-443,15637
-1,-417,15645
-1,-412,15640
-1,-698,16127
-256,-472,15873
-256,-475,15880
-256,-445,15647
-1,-439,15874
-256,-702,15871
-1,-449,15631
-1,-430,15649
-1,-432,15659
-1,-450,15650
-1,-464,15651
-1,-456,15654
-1,-692,15866
-1,-681,15865
-1,-480,15647
-257,-262,15633
-1,-492,15878
-256,-712,16103
-256,-713,15865
-1,-463,15622
-1,-451,15898
-256,-481,15919
-256,-456,15638
-1,-699,15864
-1,-449,15900
-256,-711,15842
-1,-451,15897
-256,-480,15923
-256,-487,15897
-256,-470,15901
-256,-441,15655
-1,-461,15905
-256,-474,15616
-1,-471,15921
-256,-445,15900
-256,-416,15636
-1,-445,15617
-1,-695,15859
-1,-443,15635
-1,-723,15857
-1,-725,16105
-256,-483,15649
-1,-449,15629
-1,-462,15673
-1,-445,15630
-1,-439,15902
-256,-474,15890
-256,-476,15882
-256,-750,15861
-1,-470,15629
-1,-460,15629
-1,-440,15666
-1,-475,15657
-1,-450,15928
-256,-480,15672
-1,-458,15650
-1,-429,15623
-1,-447,15645
-1,-467,15874
-256,-719,16124
-256,-744,15865
-1,-439,15617
-1,-447,15912
-256,-435,15906
-256,-489,15650
-1,-488,15643
-1,-465,15903
-256,-651,16112
-256,-457,15619
-1,-496,15628
-1,-480,15879
-256,-732,16111
-256,-752,15848
-1,-738,15839
-1,-471,15642
-1,-670,15866
-1,-420,15632
-1,-474,15880
-256,-500,15888
-256,-449,15642
-1,-439,15662
-1,-431,15642
-1,-392,15677
-1,-731,15862
-1,-751,15868
-1,-719,15860
-1,-466,15637
-1,-490,15637
-1,-717,15858
-1,-456,15877
-256,-433,15911
-256,-490,15670
-1,-478,15663
-1,-742,16126
-256,-474,15897
-256,-705,15860
-1,-464,15623
-1,-768,15852
-257,-259,15637
-1,-502,15633
-1,-496,15620
-1,-468,15620
-1,-733,15851
-1,-736,15839
-1,-713,15861
-1,-424,15626
-1,-713,15868
-1,-689,15867
-1,-748,15831
-1,-720,15817
-1,-743,15863
-1,-442,15633
-1,-716,15829
-1,-715,15868
-1,-444,15911
-256,-462,15648
-1,-487,15663
-1,-467,15887
-256,-471,15882
-256,-478,15885
-256,-724,16112
-256,-723,16085
-256,-728,15835
-1,-471,15920
-256,-511,15880
-256,-444,15659
-1,-418,15911
-256,-488,15927
-256,-711,16120
-256,-698,16126
-256,-438,15622
-1,-701,15864
-1,-675,15863
-1,-444,15618
-1,-685,16122
-256,-460,15885
-256,-426,15643
-1,-444,15902
-256,-430,15648
-1,-490,15643
-1,-486,15623
-1,-482,15646
-1,-449,15662
-1,-452,15623
-1,-702,15855
-1,-701,15868
-1,-448,15677
-1,-487,15640
-1,-458,15909
-256,-445,15637
-1,-453,15634
-1,-466,15624
-1,-718,15861
-1,-416,15634
-1,-426,15662
-1,-403,15624
-1,-433,15635
-1,-442,15898
-256,-694,15861
-1,-649,15846
-1,-665,15863
-1,-678,15869
-1,-496,15633
-257,-258,15913
-256,-458,15619
-1,-457,15640
-1,-435,15659
-1,-427,15635
-1,-684,15849
-1,-434,15622
-1,-447,15906
-256,-450,15873
-256,-715,15847
-1,-465,15885
-256,-483,15876
-256,-441,15879
-256,-697,15867
-1,-426,15633
-1,-449,15639
-1,-480,15882
-256,-750,15843
-1,-710,15794
-1,-708,15847
-1,-458,15644
-1,-469,15616
-1,-448,15881
-256,-465,15920
-256,-457,15660
-1,-445,15661
-1,-466,15660
-1,-441,15628
-1,-698,16124
-256,-406,15903
-256,-467,15668
-1,-464,15927
-256,-434,15651
-1,-464,15647
-1,-454,15630
-1,-441,15659
-1,-468,15635
-1,-491,15640
-1,-661,15870
-1,-421,15647
-1,-498,15641
-1,-741,15866
-1,-756,15866
-1,-693,15865
-1,-711,15864
-1,-435,15878
-256,-386,15909
-256,-412,15874
-256,-417,15636
-1,-446,15633
-1,-454,15644
-1,-461,15915
-256,-447,15625
-1,-456,15881
-256,-444,15628
-1,-432,15652
-1,-434,15658
-1,-417,15635
-1,-429,15620
-1,-703,15863
-1,-438,15623
-1,-699,15870
-1,-470,15665
-1,-493,15645
-1,-500,15915
-256,-452,15878
-256,-426,15885
-256,-472,15651
-1,-488,15637
-1,-477,15632
-1,-467,15636
-1,-434,15648
-1,-433,15917
-256,-412,15635
-1,-456,15645
-1,-477,15874
-256,-460,15879
-256,-441,15621
-1,-456,15629
-1,-727,15864
-1,-747,16107
-256,-741,15859
-1,-711,15845
-1,-428,15648
-1,-458,15670
-1,-453,15627
-1,-698,15869
-1,-675,15864
-1,-462,15628
-1,-733,16124
-256,-418,15874
-256,-477,15631
-1,-447,15647
-1,-713,15859
-1,-410,15878
-256,-458,15877
-256,-452,15644
-1,-730,15865
-1,-446,15634
-1,-447,15646
-1,-429,15650
-1,-451,15667
-1,-447,15658
-1,-446,15630
-1,-697,15868
-1,-436,15896
-256,-437,15641
-1,-697,16092
-256,-681,16122
-256,-453,15658
-1,-419,15679
-1,-466,15676
-1,-458,15670
-1,-425,15657
-1,-437,15630
-1,-675,15838
-1,-704,15863
-1,-424,15648
-1,-439,15911
-256,-434,15651
-1,-455,15619
-1,-722,15856
-1,-720,15868
-1,-673,15858
-1,-467,15642
-1,-480,15939
-256,-442,15934
-256,-460,15903
-256,-462,15883
-256,-710,15869
-1,-688,15859
-1,-726,15870
-1,-456,15634
-1,-429,15662
-1,-470,15640
-1,-462,15618
-1,-682,15869
-1,-449,15659
-1,-432,15680
-1,-453,15639
-1,-435,15644
-1,-442,15659
-1,-418,15669
-1,-449,15653
-1,-707,15842
-1,-672,15851
-1,-390,15883
-256,-422,15643
-1,-413,15886
-256,-409,15664
-1,-453,15634
-1,-448,15658
-1,-427,15656
-1,-448,15665
-1,-419,15645
-1,-449,15639
-1,-423,15619
-1,-459,15616
-1,-461,15626
-1,-716,15841
-1,-460,15886
-256,-397,15873
-256,-428,15635
-1,-478,15667
-1,-488,15627
-1,-743,15837
-1,-746,15866
-1,-505,15629
-257,-518,15852
-1,-727,15864
-1,-461,15659
-1,-454,15893
-256,-463,15883
-256,-713,15864
-1,-738,16112
-256,-441,15625
-1,-470,15887
-256,-488,15899
-256,-451,15911
-256,-460,15627
-1,-485,15628
-1,-409,15641
-1,-416,15633
-1,-401,15950
-256,-425,15676
-1,-457,15674
-1,-426,15916
-256,-425,15884
-256,-467,15637
-1,-717,15870
-1,-441,15628
-1,-689,15864
-1,-432,15629
-1,-454,15623
-1,-453,15893
-256,-478,15622
-1,-681,15861
-1,-433,15631
-1,-444,15662
-1,-441,15654
-1,-436,15666
-1,-465,15670
-1,-478,15667
-1,-460,15690
-1,-458,15905
-256,-421,15650
-1,-423,15626
-1,-702,15867
-1,-463,15651
-1,-466,15630
-1,-462,15636
-257,-272,15881
-256,-736,16117
-256,-425,15625
-1,-440,15625
-1,-442,15920
-256,-432,15896
-256,-459,15893
-256,-443,15628
-1,-421,15647
-1,-450,15647
-1,-482,15643
-1,-476,15638
-1,-440,15637
-1,-452,15625
-1,-459,15883
-256,-440,15625
-1,-442,15636
-1,-423,15639
-1,-456,15877
-256,-480,15652
-1,-741,15868
-1,-476,15626
-1,-482,15651
-1,-508,15630
-1,-735,15863
-1,-447,15914
-256,-481,15637
-1,-697,15868
-1,-741,15835
-1,-509,15889
-256,-479,15913
-256,-736,15857
-1,-460,15620
-1,-472,15643
-1,-457,15625
-1,-404,15917
-256,-404,15892
-256,-429,15622
-1,-444,15623
-1,-452,15624
-1,-713,16121
-256,-698,16113
-256,-444,15640
-1,-430,15645
-1,-453,15627
-1,-682,15842
-1,-714,15843
-1,-454,15652
-1,-448,15900
-256,-700,16126
-256,-467,15900
-256,-696,16100
-256,-449,15631
-1,-459,15650
-1,-474,15885
-256,-480,15890
-256,-748,15856
-1,-730,15841
-1,-452,15618
-1,-455,15915
-256,-409,15641
-1,-404,15663
-1,-476,15628
-1,-736,15856
-1,-417,15629
-1,-681,15869
-1,-453,15619
-1,-721,15866
-1,-709,15838
-1,-735,15860
-1,-489,15628
-1,-470,15641
-1,-474,15626
-1,-741,15843
-1,-463,15650
-1,-719,15864
-1,-455,15623
-1,-473,15656
-1,-464,15896
-256,-462,15627
-1,-443,15649
-1,-722,15869
-1,-471,15661
-1,-473,15638
-1,-453,15902
-256,-485,15880
-256,-476,15631
-1,-483,15636
-1,-462,15645
-1,-422,15659
-1,-432,15637
-256,-421,15698
-1,-425,15659
-1,-481,15642
-1,-417,15658
-1,-451,15618
-1,-690,15856
-1,-685,15831
-1,-718,15871
-1,-432,15640
-1,-410,15923
-256,-386,15641
-1,-433,15895
-256,-464,15617
-1,-728,15848
-1,-690,15865
-1,-462,15646
-1,-507,15681
-1,-479,15929
-256,-458,15935
-256,-439,15922
-256,-430,15916
-256,-463,15875
-256,-433,15653
-1,-479,15648
-1,-433,15891
-256,-471,15889
-256,-456,15640
-1,-440,15651
-1,-478,15930
-256,-465,15925
-256,-463,15633
-1,-449,15881
-256,-452,15659
-1,-440,15890
-256,-470,15644
-1,-410,15618
-1,-479,15635
-1,-451,15629
-1,-435,15643
-1,-437,15642
-1,-399,15937
-256,-421,15882
-256,-486,15877
-256,-723,16127
-256,-480,15619
-1,-495,15919
-256,-474,15882
-256,-691,15844
-1,-460,15617
-1,-731,15861
-1,-722,15838
-1,-485,15649
-1,-498,15647
-1,-441,15645
-1,-455,15648
-1,-470,15645
-1,-456,15664
-1,-474,15934
-256,-454,15674
-1,-472,15621
-1,-675,15871
-1,-470,15634
-1,-484,15890
-256,-453,15901
-256,-717,16120
-256,-431,15879
-256,-424,15894
-256,-742,16126
-256,-458,15888
-256,-690,16121
-256,-443,15903
-256,-442,15636
-1,-447,15664
-1,-738,16120
-256,-701,16117
-256,-707,15861
-1,-457,15629
-1,-715,15845
-1,-442,15633
-1,-472,15653
-1,-453,15643
-1,-454,15660
-1,-744,15871
-1,-468,15642
-1,-482,15623
-1,-727,16126
-256,-504,15625
-1,-724,15865
-1,-698,15846
-1,-424,15884
-256,-465,15646
-1,-710,15863
-1,-416,15877
-256,-434,15902
-256,-708,15863
-1,-681,15865
-1,-667,16103
-256,-448,15639
-1,-449,15643
-1,-430,15898
-256,-422,15654
-1,-409,15679
-1,-418,15655
-1,-435,15655
-1,-444,15884
-256,-457,15635
-1,-449,15630
-1,-663,16114
-256,-430,15884
-256,-673,15864
-1,-697,15827
-1,-710,15862
-1,-466,15902
-256,-437,15648
-1,-423,15646
-1,-443,15685
-1,-451,15639
-1,-704,16114
-256,-450,15660
-1,-447,15678
-1,-444,15648
-1,-457,15619
-1,-463,15632
-1,-425,15683
-1,-400,15689
-1,-425,15892
-256,-489,15872
-256,-453,15885
-256,-477,15654
-1,-477,15623
-1,-425,15654
-1,-434,15892
-256,-456,15631
-1,-428,15647
-1,-673,15869
-1,-443,15630
-1,-441,15874
-256,-436,15896
-256,-460,15885
-256,-454,15616
-1,-742,15848
-1,-737,16122
-256,-455,15657
-1,-729,15870
-1,-718,16110
-256,-485,15627
-1,-504,15618
-1,-478,15636
-1,-462,15620
-1,-454,15633
-1,-450,15641
-1,-472,15917
-256,-458,15921
-256,-481,15663
-1,-470,15651
-1,-459,15634
-1,-454,15660
-1,-476,15875
-256,-736,16104
-256,-473,15662
-1,-468,15633
-1,-451,15627
-1,-478,15623
-1,-454,15897
-256,-439,15874
-256,-434,15908
-256,-470,15627
-1,-492,15622
-1,-730,15870
-1,-435,15900
-256,-461,15658
-1,-433,15927
-256,-435,15636
-1,-477,15654
-1,-476,15646
-1,-447,15655
-1,-443,15649
-1,-449,15646
-1,-400,15649
-1,-474,15639
-1,-747,15850
-1,-468,15622
-1,-462,15623
-1,-426,15634
-1,-477,15639
-1,-482,15873
-256,-728,16107
-256,-722,16121
-256,-709,16108
-256,-694,15868
-1,-478,15629
-1,-448,15633
-1,-448,15642
-1,-480,15634
-1,-454,15654
-1,-444,15906
-256,-691,15865
-1,-406,15635
-1,-402,15896
-256,-417,15637
-1,-681,15864
-1,-428,15616
-1,-410,15635
-1,-717,15871
-1,-483,15624
-1,-493,15893
-256,-724,16111
-256,-721,16070
-256,-466,15644
-1,-422,15642
-1,-416,15894
-256,-669,16127
-256,-653,15856
-1,-455,15632
-1,-716,16126
-256,-464,15645
-1,-456,15925
-256,-449,15887
-256,-484,15891
-256,-473,15918
-256,-446,15912
-256,-443,15892
-256,-427,15893
-256,-410,15643
-1,-448,15653
-1,-438,15645
-1,-446,15639
-1,-406,15686
-1,-437,15641
-1,-431,15620
-1,-453,15623
-1,-715,15861
-1,-757,15860
-1,-474,15637
-1,-500,15878
-256,-479,15901
-256,-444,15891
-256,-434,15625
-1,-461,15888
-256,-701,16126
-256,-435,15894
-256,-472,15893
-256,-427,15883
-256,-711,15856
-1,-700,15837
-1,-444,15617
-1,-469,15627
-1,-440,15635
-1,-463,15629
-1,-448,15914
-256,-407,15638
-1,-399,15637
-1,-423,15909
-256,-436,15651
-1,-477,15650
-1,-481,15647
-1,-413,15679
-1,-462,15948
-256,-484,15675
-1,-431,15630
-256,-438,15919
-256,-412,15914
-256,-483,15655
-256,-422,15627
-256,-423,15875
-256,-685,16066
-256,-718,15854
-1,-466,15664
-256,-436,15910
-256,-473,15881
-256,-397,15660
-1,-726,15864
-256,-403,15904
-256,-685,15868
-1,-430,15635
-1,-689,15869
-256,-702,15860
-1,-465,15897
-256,-437,15628
-1,-463,15667
-1,-450,15638
-257,-271,15887
-256,-500,15624
-1,-447,15621
-1,-432,15884
-256,-449,15904
-256,-726,15868
-1,-437,15618
-1,-439,15913
-256,-431,15901
-256,-721,15861
-1,-689,15856
-1,-686,15868
-256,-452,15656
-1,-470,15919
-256,-485,15684
-1,-461,15669
-1,-456,15932
-256,-455,15652
-1,-498,15617
-1,-433,15617
-1,-709,16120
-256,-675,15841
-1,-727,15858
-1,-508,15663
-1,-457,15903
-256,-430,15897
-256,-473,15882
-256,-488,15643
-1,-475,15624
-1,-456,15654
-1,-448,15913
-256,-451,15657
-1,-713,16087
-256,-702,16123
-256,-719,15845
-1,-488,15628
-1,-446,15620
-1,-475,15924
-256,-723,16125
-256,-738,15871
-1,-428,15625
-1,-691,15871
-1,-466,15622
-1,-463,15906
-256,-440,15618
-1,-687,15852
-1,-705,16120
-256,-462,15888
-256,-455,15630
-1,-440,15626
-1,-738,15868
-257,-261,15873
-256,-712,16107
-256,-448,15618
-1,-464,15619
-1,-482,15639
-1,-480,15640
-1,-428,15659
-1,-441,15653
-1,-713,15859
-1,-453,15633
-1,-707,15871
-1,-411,15621
-1,-448,15880
-256,-710,15856
-1,-456,15637
-1,-452,15628
-1,-722,16103
-256,-743,15859
-1,-465,15629
-1,-432,15624
-1,-445,15875
-256,-710,16091
-256,-454,15622
-1,-707,15862
-1,-744,16125
-256,-755,15849
-1,-457,15655
-1,-444,15625
-1,-477,15630
-1,-691,15852
-1,-465,15905
-256,-420,15630
-1,-448,15636
-1,-430,15670
-1,-665,16117
-256,-408,15890
-256,-446,15670
-257,-516,15861
-1,-767,15871
-256,-461,15644
-1,-423,15654
-1,-421,15636
-1,-441,15640
-1,-441,15625
-1,-426,15876
-256,-687,15864
-1,-711,16120
-256,-450,15888
-256,-727,15864
-1,-454,15618
-1,-430,15637
-1,-409,15893
-256,-443,15885
-256,-438,15618
-1,-746,15834
-1,-467,15639
-1,-728,15868
-1,-491,15639
-1,-476,15635
-1,-698,15858
-1,-445,15872
-256,-427,15628
-1,-483,15640
-1,-494,15637
-1,-441,15621
-1,-701,16120
-256,-432,15621
-1,-426,15619
-1,-435,15912
-256,-707,16126
-256,-431,15875
-256,-712,16126
-256,-450,15880
-256,-444,15620
-1,-477,15671
-1,-461,15624
-1,-447,15628
-1,-416,15632
-1,-468,15621
-1,-748,15828
-1,-728,15853
-1,-485,15624
-1,-749,15835
-1,-489,15875
-256,-469,15626
-1,-427,15651
-1,-418,15916
-256,-430,15890
-256,-471,15910
-256,-467,15890
-256,-443,15894
-256,-442,15637
-1,-708,15855
-1,-738,16068
-256,-480,15647
-1,-474,15630
-1,-476,15621
-1,-447,15642
-1,-492,15656
-1,-485,15687
-1,-494,15627
-1,-467,15633
-1,-739,15863
-1,-425,15636
-1,-444,15634
-1,-488,15922
-256,-477,15616
-1,-738,15852
-1,-748,15869
-1,-443,15933
-256,-457,15678
-1,-438,15632
-1,-450,15641
-1,-689,15854
-1,-410,15663
-1,-450,15633
-1,-450,15668
-1,-458,15685
-1,-450,15654
-1,-436,15908
-256,-417,15644
-1,-403,15915
-256,-668,15852
-1,-402,15621
-1,-432,15879
-256,-472,15632
-1,-484,15881
-256,-716,15867
-1,-458,15877
-256,-462,15880
-256,-483,15616
-1,-465,15645
-1,-449,15923
-256,-434,15636
-1,-743,15868
-1,-729,15866
-1,-712,15871
-1,-436,15905
-256,-479,15877
-256,-480,15618
-1,-728,15852
-1,-495,15906
-256,-504,15665
-1,-490,15655
-1,-445,15645
-1,-423,15634
-1,-685,16108
-256,-434,15916
-256,-453,15879
-256,-479,15917
-256,-434,15654
-1,-418,15702
-1,-441,15646
-1,-445,15715
-1,-430,15648
-1,-412,15638
-1,-421,15901
-256,-728,16113
-256,-440,15628
-1,-442,15626
-1,-451,15629
-1,-695,16106
-256,-723,16099
-256,-715,15861
-1,-722,16124
-256,-447,15895
-256,-496,15623
-1,-474,15885
-256,-460,15876
-256,-453,15891
-256,-418,15632
-1,-431,15627
-1,-461,15630
-1,-714,15860
-1,-455,15622
-1,-405,15914
-256,-430,15940
-256,-436,15900
-256,-438,15645
-1,-443,15652
-1,-450,15649
-257,-262,15912
-256,-695,15870
-1,-721,15861
-1,-734,15859
-1,-761,15865
-1,-474,15873
-256,-486,15649
-1,-461,15647
-1,-710,16126
-256,-478,15665
-1,-452,15933
-256,-441,15694
-1,-438,15890
-256,-443,15632
-1,-694,15869
-1,-466,15645
-1,-486,15879
-256,-706,15871
-1,-697,15869
-1,-720,16096
-256,-695,15859
-1,-699,15869
-1,-420,15890
-256,-464,15640
-1,-724,15864
-1,-470,15616
-1,-676,15865
-1,-423,15629
-1,-690,16123
-256,-682,16106
-256,-743,15828
-1,-682,15858
-1,-686,16092
-256,-699,16120
-256,-737,16124
-256,-747,15859
-1,-725,16122
-256,-711,15853
-1,-461,15653
-1,-716,15864
-1,-452,15619
-1,-723,15869
-1,-753,15864
-1,-492,15626
-1,-716,15868
-1,-460,15646
-1,-429,15626
-1,-469,15662
-1,-465,15686
-1,-485,15924
-256,-487,15904
-256,-497,15894
-256,-493,15655
-1,-486,15651
-1,-474,15620
-1,-449,15650
-1,-470,15621
-1,-425,15880
-256,-438,15643
-1,-731,16107
-256,-446,15621
-1,-424,15892
-256,-740,16099
-256,-450,15917
-256,-448,15925
-256,-724,16119
-256,-756,15860
-512,-264,15636
-1,-489,15873
-256,-733,16126
-256,-466,15885
-256,-728,16122
-256,-696,15870
-1,-433,15623
-1,-436,15626
-1,-429,15649
-1,-713,15841
-1,-690,15861
-1,-722,15867
-1,-734,16126
-256,-463,15616
-1,-458,15616
-1,-500,15662
-1,-498,15921
-256,-720,16122
-256,-675,15868
-1,-431,15668
-1,-469,15667
-1,-436,15639
-1,-459,15878
-256,-425,15644
-1,-462,15620
-1,-450,15628
-1,-463,15910
-256,-413,15640
-1,-461,15657
-1,-461,15654
-1,-474,15644
-1,-475,15654
-1,-452,15625
-1,-443,15655
-1,-703,16119
-256,-710,16118
-256,-506,15891
-256,-767,16121
-256,-472,15873
-256,-446,15633
-1,-692,15859
-1,-442,15635
-1,-439,15623
-1,-685,15849
-1,-405,15659
-1,-425,15641
-1,-445,15618
-1,-704,15855
-1,-721,15869
-1,-656,16122
-256,-444,15627
-1,-432,15656
-1,-438,15628
-1,-465,15656
-1,-751,15867
-1,-494,15627
-1,-757,15870
-1,-478,15638
-257,-260,15622
-1,-483,15619
-1,-459,15923
-256,-452,15663
-1,-715,15866
-1,-440,15627
-1,-690,15868
-1,-718,15847
-1,-445,15640
-1,-447,15881
-256,-437,15891
-256,-681,16115
-256,-690,15861
-1,-484,15616
-1,-724,15835
-1,-749,16103
-256,-453,15629
-1,-717,15864
-1,-465,15892
-256,-470,15887
-256,-431,15628
-1,-478,15876
-256,-703,16125
-256,-712,15863
-1,-470,15619
-1,-707,15871
-1,-446,15618
-1,-469,15634
-1,-484,15918
-256,-754,16116
-256,-710,15852
-1,-423,15623
-1,-414,15644
-1,-713,15870
-1,-467,15637
-1,-395,15659
-1,-486,15894
-256,-438,15872
-256,-452,15890
-256,-475,15901
-256,-434,15659
-1,-451,15675
-1,-431,15649
-1,-423,15621
-1,-437,15626
-1,-454,15663
-1,-471,15911
-256,-488,15656
-1,-467,15624
-1,-444,15678
-1,-442,15624
-1,-674,15859
-1,-660,15868
-1,-406,15637
-1,-442,15621
-1,-461,15617
-1,-495,15921
-256,-445,15672
-1,-466,15667
-1,-446,15903
-256,-448,15925
-256,-440,15923
-256,-418,15637
-1,-420,15652
-1,-440,15637
-1,-452,15879
-256,-692,15866
-1,-456,15630
-1,-448,15625
-1,-466,15638
-1,-488,15647
